acc;accuracy;average_response_time;avg_rt;background;canvas_backend;correct;correct_new_1_sketchpad;correct_new_keyboard_response;correct_welcome;count_experiment;count_getting_started;count_new_1_inline_script;count_new_1_sketchpad;count_new_inline_script;count_new_keyboard_response;count_new_logger;count_new_loop;count_new_repeat_cycle;count_new_sequence;count_new_sketchpad;count_welcome;d;datetime;description;disable_garbage_collection;experiment_file;experiment_path;font_bold;font_family;font_italic;font_size;font_underline;foreground;form_clicks;fullscreen;height;i;live_row;live_row_new_loop;logfile;opensesame_codename;opensesame_version;person;repeat_cycle;response;response_new_1_sketchpad;response_new_keyboard_response;response_time;response_time_new_1_sketchpad;response_time_new_keyboard_response;response_time_welcome;response_welcome;round_decimals;sound_buf_size;sound_channels;sound_freq;sound_sample_size;start;subject_nr;subject_parity;time_experiment;time_getting_started;time_new_1_inline_script;time_new_1_sketchpad;time_new_inline_script;time_new_keyboard_response;time_new_logger;time_new_loop;time_new_repeat_cycle;time_new_sequence;time_new_sketchpad;time_welcome;title;total_correct;total_response_time;total_responses;trait;width;x;y
undefined;undefined;1;1;#3d3846;psycho;undefined;undefined;undefined;undefined;0;0;1;0;0;0;0;0;NA;0;0;0;3;Sun Nov 26 00:17:07 2023;The main experiment item;yes;trait_person_exp_enhanced_ver2_project_complete.osexp;/Users/larisa/Documents;no;mono;no;18;no;white;no;yes;768;1;0;0;/Users/larisa/Documents/subject-77.csv;Melodramatic Milgram;4.0.1;Riddick;0;None;w;None;1.0774320016935235;821.0231859993655;1.0774320016935235;1829.568183999072;q;2;1024;2;48000;-16;experiment;77;odd;40853.973504999885;NA;40855.182396999226;44826.95481799965;NA;45650.26125699842;45651.61494899985;42720.51217199987;NA;42811.20909299898;42821.22418799918;40875.814981000076;Новый эксперимент;0;1.0774320016935235;1;winner;1024;0;1
undefined;undefined;1;1;#3d3846;psycho;undefined;undefined;undefined;undefined;0;0;2;1;1;1;1;0;NA;1;1;0;1;Sun Nov 26 00:17:07 2023;The main experiment item;yes;trait_person_exp_enhanced_ver2_project_complete.osexp;/Users/larisa/Documents;no;mono;no;18;no;white;no;yes;768;2;1;1;/Users/larisa/Documents/subject-77.csv;Melodramatic Milgram;4.0.1;self;0;None;w;None;1.0640820000844542;347.02643700074987;1.0640820000844542;1829.568183999072;q;2;1024;2;48000;-16;experiment;77;odd;40853.973504999885;NA;40855.182396999226;47764.5665179989;45654.7573480002;48116.448723998474;48117.65743399883;42720.51217199987;NA;45752.72996199965;45759.66032799988;40875.814981000076;Новый эксперимент;0;2.1415140017779777;2;outgoing;1024;0;4
undefined;undefined;1;1;#3d3846;psycho;undefined;undefined;undefined;undefined;0;0;3;2;2;2;2;0;NA;2;2;0;1;Sun Nov 26 00:17:07 2023;The main experiment item;yes;trait_person_exp_enhanced_ver2_project_complete.osexp;/Users/larisa/Documents;no;mono;no;18;no;white;no;yes;768;3;2;2;/Users/larisa/Documents/subject-77.csv;Melodramatic Milgram;4.0.1;close1;0;None;w;None;1.0363469991716556;210.8993609999743;1.0363469991716556;1829.568183999072;q;2;1024;2;48000;-16;experiment;77;odd;40853.973504999885;NA;40855.182396999226;50227.65876399899;48118.101746998946;50440.12913000006;50441.31474799906;42720.51217199987;NA;48215.34485099983;48221.24888399958;40875.814981000076;Новый эксперимент;0;3.1778610009496333;3;chad;1024;1;5
undefined;undefined;1;1;#3d3846;psycho;undefined;undefined;undefined;undefined;0;0;4;3;3;3;3;0;NA;3;3;0;1;Sun Nov 26 00:17:07 2023;The main experiment item;yes;trait_person_exp_enhanced_ver2_project_complete.osexp;/Users/larisa/Documents;no;mono;no;18;no;white;no;yes;768;4;3;3;/Users/larisa/Documents/subject-77.csv;Melodramatic Milgram;4.0.1;acquaint2;0;None;w;None;1.0621119999996154;231.001357000423;1.0621119999996154;1829.568183999072;q;2;1024;2;48000;-16;experiment;77;odd;40853.973504999885;NA;40855.182396999226;52554.394189999584;50441.784531998564;52787.064550999276;52788.27086599995;42720.51217199987;NA;50540.643102000104;50549.87175599854;40875.814981000076;Новый эксперимент;0;4.239973000949249;4;thoughtful;1024;0;0
undefined;undefined;1;1;#3d3846;psycho;undefined;undefined;undefined;undefined;0;0;5;4;4;4;4;0;NA;4;4;0;3;Sun Nov 26 00:17:07 2023;The main experiment item;yes;trait_person_exp_enhanced_ver2_project_complete.osexp;/Users/larisa/Documents;no;mono;no;18;no;white;no;yes;768;1;4;4;/Users/larisa/Documents/subject-77.csv;Melodramatic Milgram;4.0.1;Mark;0;None;w;None;1.051928000379121;180.8361559997138;1.051928000379121;1829.568183999072;q;2;1024;2;48000;-16;experiment;77;odd;40853.973504999885;NA;52788.8430919993;54898.46311399924;52788.792458999524;55080.904843998724;55082.10453799984;42720.51217199987;NA;52886.84046399976;52893.50533799916;40875.814981000076;Новый эксперимент;0;5.29190100132837;5;miserable;1024;3;2
undefined;undefined;1;1;#3d3846;psycho;undefined;undefined;undefined;undefined;0;0;6;5;5;5;5;0;NA;5;5;0;0;Sun Nov 26 00:17:07 2023;The main experiment item;yes;trait_person_exp_enhanced_ver2_project_complete.osexp;/Users/larisa/Documents;no;mono;no;18;no;white;no;yes;768;2;5;5;/Users/larisa/Documents/subject-77.csv;Melodramatic Milgram;4.0.1;acquaint4;0;None;w;None;1.0602170004858635;115.78261600152473;1.0602170004858635;1829.568183999072;q;2;1024;2;48000;-16;experiment;77;odd;40853.973504999885;NA;52788.8430919993;57194.6106589985;55082.72960300019;57312.00813399846;57313.222532999134;42720.51217199987;NA;55182.93058299969;55189.59086599898;40875.814981000076;Новый эксперимент;0;6.352118001814233;6;cannot code;1024;0;2
undefined;undefined;1;1;#3d3846;psycho;undefined;undefined;undefined;undefined;0;0;7;6;6;6;6;0;NA;6;6;0;0;Sun Nov 26 00:17:07 2023;The main experiment item;yes;trait_person_exp_enhanced_ver2_project_complete.osexp;/Users/larisa/Documents;no;mono;no;18;no;white;no;yes;768;3;6;6;/Users/larisa/Documents/subject-77.csv;Melodramatic Milgram;4.0.1;close1;0;None;w;None;1.0566969995124964;561.3459590003913;1.0566969995124964;1829.568183999072;q;2;1024;2;48000;-16;experiment;77;odd;40853.973504999885;NA;52788.8430919993;59422.91008999928;57313.84230399999;59985.79015199903;59987.00800299957;42720.51217199987;NA;57412.025717998404;57418.03740799878;40875.814981000076;Новый эксперимент;0;7.4088150013267295;7;fancy;1024;1;0
undefined;undefined;1;1;#3d3846;psycho;undefined;undefined;undefined;undefined;0;0;8;7;7;7;7;0;NA;7;7;0;0;Sun Nov 26 00:17:07 2023;The main experiment item;yes;trait_person_exp_enhanced_ver2_project_complete.osexp;/Users/larisa/Documents;no;mono;no;18;no;white;no;yes;768;4;7;7;/Users/larisa/Documents/subject-77.csv;Melodramatic Milgram;4.0.1;self;0;None;w;None;1.0551929990469944;251.77951299883716;1.0551929990469944;1829.568183999072;q;2;1024;2;48000;-16;experiment;77;odd;40853.973504999885;NA;52788.8430919993;62098.374137000064;59987.8208680002;62351.77524699975;62352.994711000065;42720.51217199987;NA;60085.05855600015;60093.276965999394;40875.814981000076;Новый эксперимент;0;8.464008000373724;8;gregarious;1024;0;0
undefined;undefined;1;1;#3d3846;psycho;undefined;undefined;undefined;undefined;0;0;9;8;8;8;8;0;NA;8;8;0;3;Sun Nov 26 00:17:07 2023;The main experiment item;yes;trait_person_exp_enhanced_ver2_project_complete.osexp;/Users/larisa/Documents;no;mono;no;18;no;white;no;yes;768;1;8;8;/Users/larisa/Documents/subject-77.csv;Melodramatic Milgram;4.0.1;Jimmy;0;None;w;None;1.0672650005290052;491.8921889984631;1.0672650005290052;1829.568183999072;q;2;1024;2;48000;-16;experiment;77;odd;40853.973504999885;NA;62353.695772999345;64465.22177299994;62353.63054899972;64958.64101299958;64959.878579998986;42720.51217199987;NA;62454.00120500017;62459.894566;40875.814981000076;Новый эксперимент;0;9.531273000902729;9;fancy;1024;2;7
undefined;undefined;1;1;#3d3846;psycho;undefined;undefined;undefined;undefined;0;0;10;9;9;9;9;0;NA;9;9;0;2;Sun Nov 26 00:17:07 2023;The main experiment item;yes;trait_person_exp_enhanced_ver2_project_complete.osexp;/Users/larisa/Documents;no;mono;no;18;no;white;no;yes;768;2;9;9;/Users/larisa/Documents/subject-77.csv;Melodramatic Milgram;4.0.1;acquaint3;0;None;w;None;1.0735109990491765;263.6265029996139;1.0735109990491765;1829.568183999072;q;2;1024;2;48000;-16;experiment;77;odd;40853.973504999885;NA;62353.695772999345;67072.39793000008;64960.55390699985;67337.59439099958;67338.83920399967;42720.51217199987;NA;65059.13758399947;65067.553898999904;40875.814981000076;Новый эксперимент;0;10.604783999951906;10;thoughtful;1024;1;2
undefined;undefined;1;1;#3d3846;psycho;undefined;undefined;undefined;undefined;0;0;11;10;10;10;10;0;NA;10;10;0;2;Sun Nov 26 00:17:07 2023;The main experiment item;yes;trait_person_exp_enhanced_ver2_project_complete.osexp;/Users/larisa/Documents;no;mono;no;18;no;white;no;yes;768;3;10;10;/Users/larisa/Documents/subject-77.csv;Melodramatic Milgram;4.0.1;self;0;None;w;None;1.0606269988784334;255.9859579996555;1.0606269988784334;1829.568183999072;q;2;1024;2;48000;-16;experiment;77;odd;40853.973504999885;NA;62353.695772999345;69450.02679499885;67339.4271849993;69707.6257509998;69708.86413599874;42720.51217199987;NA;67437.25562799955;67444.98281899905;40875.814981000076;Новый эксперимент;0;11.665410998830339;11;miserable;1024;1;0
undefined;undefined;1;1;#3d3846;psycho;undefined;undefined;undefined;undefined;0;0;12;11;11;11;11;0;NA;11;11;0;2;Sun Nov 26 00:17:07 2023;The main experiment item;yes;trait_person_exp_enhanced_ver2_project_complete.osexp;/Users/larisa/Documents;no;mono;no;18;no;white;no;yes;768;4;11;11;/Users/larisa/Documents/subject-77.csv;Melodramatic Milgram;4.0.1;close2;0;None;w;None;1.040048000504612;267.17716599887353;1.040048000504612;1829.568183999072;q;2;1024;2;48000;-16;experiment;77;odd;40853.973504999885;NA;62353.695772999345;71821.81663499978;69709.48830299858;72090.57982899867;72091.8095019988;42720.51217199987;NA;69808.05917299949;69814.87153999842;40875.814981000076;Новый эксперимент;0;12.705458999334951;12;gregarious;1024;0;4
undefined;undefined;1;1;#3d3846;psycho;undefined;undefined;undefined;undefined;0;0;13;12;12;12;12;0;NA;12;12;0;0;Sun Nov 26 00:17:07 2023;The main experiment item;yes;trait_person_exp_enhanced_ver2_project_complete.osexp;/Users/larisa/Documents;no;mono;no;18;no;white;no;yes;768;1;12;12;/Users/larisa/Documents/subject-77.csv;Melodramatic Milgram;4.0.1;self;0;None;w;None;1.0555409990047337;271.21738599998935;1.0555409990047337;1829.568183999072;q;2;1024;2;48000;-16;experiment;77;odd;40853.973504999885;NA;72092.37648699855;74200.6370909985;72092.32985000017;74473.40248;74474.64290399876;42720.51217199987;NA;72189.51868699878;72195.54850199893;40875.814981000076;Новый эксперимент;0;13.760999998339685;13;fancy;1024;2;6
undefined;undefined;1;1;#3d3846;psycho;undefined;undefined;undefined;undefined;0;0;14;13;13;13;13;0;NA;13;13;0;3;Sun Nov 26 00:17:07 2023;The main experiment item;yes;trait_person_exp_enhanced_ver2_project_complete.osexp;/Users/larisa/Documents;no;mono;no;18;no;white;no;yes;768;2;13;13;/Users/larisa/Documents/subject-77.csv;Melodramatic Milgram;4.0.1;acquaint3;0;None;w;None;1.0775389982882189;364.3354300002102;1.0775389982882189;1829.568183999072;q;2;1024;2;48000;-16;experiment;77;odd;40853.973504999885;NA;72092.37648699855;76587.46873699965;74475.34558000007;76953.45427800021;76954.72408800015;42720.51217199987;NA;74574.38697899852;74582.66661499874;40875.814981000076;Новый эксперимент;0;14.838538996627904;14;belittled;1024;0;4
undefined;undefined;1;1;#3d3846;psycho;undefined;undefined;undefined;undefined;0;0;15;14;14;14;14;0;NA;14;14;0;2;Sun Nov 26 00:17:07 2023;The main experiment item;yes;trait_person_exp_enhanced_ver2_project_complete.osexp;/Users/larisa/Documents;no;mono;no;18;no;white;no;yes;768;3;14;14;/Users/larisa/Documents/subject-77.csv;Melodramatic Milgram;4.0.1;Jimmy;0;None;w;None;1.0658769988367567;428.45636700076284;1.0658769988367567;1829.568183999072;q;2;1024;2;48000;-16;experiment;77;odd;40853.973504999885;NA;72092.37648699855;79063.31763699927;76955.3558839998;79493.38569199972;79494.7297939998;42720.51217199987;NA;77052.42886299857;77058.39505099902;40875.814981000076;Новый эксперимент;0;15.90441599546466;15;winner;1024;0;5
undefined;undefined;1;1;#3d3846;psycho;undefined;undefined;undefined;undefined;0;0;16;15;15;15;15;0;NA;15;15;0;2;Sun Nov 26 00:17:07 2023;The main experiment item;yes;trait_person_exp_enhanced_ver2_project_complete.osexp;/Users/larisa/Documents;no;mono;no;18;no;white;no;yes;768;4;15;15;/Users/larisa/Documents/subject-77.csv;Melodramatic Milgram;4.0.1;close1;0;None;w;None;1.0349860003771028;446.83444000111194;1.0349860003771028;1829.568183999072;q;2;1024;2;48000;-16;experiment;77;odd;40853.973504999885;NA;72092.37648699855;81605.70430499865;79495.15400499877;82054.17684499844;82055.41515799996;42720.51217199987;NA;79592.95086199927;79599.22002999883;40875.814981000076;Новый эксперимент;0;16.939401995841763;16;thoughtful;1024;0;0
undefined;undefined;1;1;#3d3846;psycho;undefined;undefined;undefined;undefined;0;0;17;16;16;16;16;0;NA;16;16;0;0;Sun Nov 26 00:17:07 2023;The main experiment item;yes;trait_person_exp_enhanced_ver2_project_complete.osexp;/Users/larisa/Documents;no;mono;no;18;no;white;no;yes;768;1;16;16;/Users/larisa/Documents/subject-77.csv;Melodramatic Milgram;4.0.1;self;0;None;w;None;1.073244999133749;1598.442428999988;1.073244999133749;1829.568183999072;q;2;1024;2;48000;-16;experiment;77;odd;40853.973504999885;NA;82055.95685699882;84163.94807199868;82055.91227999867;85763.95770499948;85765.23460099997;42720.51217199987;NA;82152.6011599999;82158.71788699951;40875.814981000076;Новый эксперимент;0;18.012646994975512;17;belittled;1024;3;6
undefined;undefined;1;1;#3d3846;psycho;undefined;undefined;undefined;undefined;0;0;18;17;17;17;17;0;NA;17;17;0;1;Sun Nov 26 00:17:07 2023;The main experiment item;yes;trait_person_exp_enhanced_ver2_project_complete.osexp;/Users/larisa/Documents;no;mono;no;18;no;white;no;yes;768;2;17;17;/Users/larisa/Documents/subject-77.csv;Melodramatic Milgram;4.0.1;Johnson;0;None;w;None;1.0774809998110868;203.08614500027034;1.0774809998110868;1829.568183999072;q;2;1024;2;48000;-16;experiment;77;odd;40853.973504999885;NA;82055.95685699882;87877.24648099902;85765.70978400014;88081.97671000016;88083.26495599977;42720.51217199987;NA;85866.14759999975;85872.07460199897;40875.814981000076;Новый эксперимент;0;19.0901279947866;18;chad;1024;2;1
undefined;undefined;1;1;#3d3846;psycho;undefined;undefined;undefined;undefined;0;0;19;18;18;18;18;0;NA;18;18;0;1;Sun Nov 26 00:17:07 2023;The main experiment item;yes;trait_person_exp_enhanced_ver2_project_complete.osexp;/Users/larisa/Documents;no;mono;no;18;no;white;no;yes;768;3;18;18;/Users/larisa/Documents/subject-77.csv;Melodramatic Milgram;4.0.1;close3;0;None;w;None;1.0589100002107443;304.24487900017994;1.0589100002107443;1829.568183999072;q;2;1024;2;48000;-16;experiment;77;odd;40853.973504999885;NA;82055.95685699882;90197.07566999932;88083.88995999849;90502.96532799985;90504.23723399945;42720.51217199987;NA;88183.90782499955;88192.08544699904;40875.814981000076;Новый эксперимент;0;20.149037994997343;19;outgoing;1024;0;3
undefined;undefined;1;1;#3d3846;psycho;undefined;undefined;undefined;undefined;0;0;20;19;19;19;19;0;NA;19;19;0;1;Sun Nov 26 00:17:07 2023;The main experiment item;yes;trait_person_exp_enhanced_ver2_project_complete.osexp;/Users/larisa/Documents;no;mono;no;18;no;white;no;yes;768;4;19;19;/Users/larisa/Documents/subject-77.csv;Melodramatic Milgram;4.0.1;acquaint1;0;None;w;None;1.0615569990477525;411.3009950015112;1.0615569990477525;1829.568183999072;q;2;1024;2;48000;-16;experiment;77;odd;40853.973504999885;NA;82055.95685699882;92616.83020399869;90504.86149599965;93029.76048399978;93031.05940800015;42720.51217199987;NA;90604.25598599977;90610.46033299863;40875.814981000076;Новый эксперимент;0;21.210594994045096;20;fancy;1024;0;0
undefined;undefined;1;1;#3d3846;psycho;undefined;undefined;undefined;undefined;0;0;21;20;20;20;20;0;NA;20;20;0;0;Sun Nov 26 00:17:07 2023;The main experiment item;yes;trait_person_exp_enhanced_ver2_project_complete.osexp;/Users/larisa/Documents;no;mono;no;18;no;white;no;yes;768;1;20;20;/Users/larisa/Documents/subject-77.csv;Melodramatic Milgram;4.0.1;self;0;None;w;None;1.0680200011847774;386.8534670000372;1.0680200011847774;1829.568183999072;q;2;1024;2;48000;-16;experiment;77;odd;40853.973504999885;NA;93031.71762300008;95142.24039500004;93031.65863100003;95530.72072899886;95532.01300599903;42720.51217199987;NA;93129.43951399939;93137.28617299967;40875.814981000076;Новый эксперимент;0;22.278614995229873;21;miserable;1024;1;4
undefined;undefined;1;1;#3d3846;psycho;undefined;undefined;undefined;undefined;0;0;22;21;21;21;21;0;NA;21;21;0;2;Sun Nov 26 00:17:07 2023;The main experiment item;yes;trait_person_exp_enhanced_ver2_project_complete.osexp;/Users/larisa/Documents;no;mono;no;18;no;white;no;yes;768;2;21;21;/Users/larisa/Documents/subject-77.csv;Melodramatic Milgram;4.0.1;Catlin;0;None;w;None;1.0810069998115068;144.83009399918956;1.0810069998115068;1829.568183999072;q;2;1024;2;48000;-16;experiment;77;odd;40853.973504999885;NA;93031.71762300008;97642.2080960001;95532.644592;97788.6671289998;97789.97572299886;42720.51217199987;NA;95629.29536499905;95637.19708200006;40875.814981000076;Новый эксперимент;0;23.35962199504138;22;winner;1024;0;3
undefined;undefined;1;1;#3d3846;psycho;undefined;undefined;undefined;undefined;0;0;23;22;22;22;22;0;NA;22;22;0;2;Sun Nov 26 00:17:07 2023;The main experiment item;yes;trait_person_exp_enhanced_ver2_project_complete.osexp;/Users/larisa/Documents;no;mono;no;18;no;white;no;yes;768;3;22;22;/Users/larisa/Documents/subject-77.csv;Melodramatic Milgram;4.0.1;acquaint1;0;None;w;None;1.0729830009950092;295.8712020008534;1.0729830009950092;1829.568183999072;q;2;1024;2;48000;-16;experiment;77;odd;40853.973504999885;NA;93031.71762300008;99898.18019799895;97790.48833699926;100195.69965199844;100197.02605400016;42720.51217199987;NA;97887.07307899858;97893.07414599898;40875.814981000076;Новый эксперимент;0;24.43260499603639;23;fancy;1024;1;3
undefined;undefined;1;1;#3d3846;psycho;undefined;undefined;undefined;undefined;0;0;24;23;23;23;23;0;NA;23;23;0;2;Sun Nov 26 00:17:07 2023;The main experiment item;yes;trait_person_exp_enhanced_ver2_project_complete.osexp;/Users/larisa/Documents;no;mono;no;18;no;white;no;yes;768;4;23;23;/Users/larisa/Documents/subject-77.csv;Melodramatic Milgram;4.0.1;close2;0;None;w;None;1.058292000379879;184.13794500156655;1.058292000379879;1829.568183999072;q;2;1024;2;48000;-16;experiment;77;odd;40853.973504999885;NA;93031.71762300008;102306.81647499841;100197.42715399843;102492.5965679995;102493.8898649998;42720.51217199987;NA;100294.30015599974;100300.23608199917;40875.814981000076;Новый эксперимент;0;25.490896996416268;24;chad;1024;0;0
undefined;undefined;1;1;#3d3846;psycho;undefined;undefined;undefined;undefined;0;0;25;24;24;24;24;0;NA;24;24;0;2;Sun Nov 26 00:17:07 2023;The main experiment item;yes;trait_person_exp_enhanced_ver2_project_complete.osexp;/Users/larisa/Documents;no;mono;no;18;no;white;no;yes;768;1;24;24;/Users/larisa/Documents/subject-77.csv;Melodramatic Milgram;4.0.1;close1;0;None;w;None;1.0711670001910534;281.11579600044934;1.0711670001910534;1829.568183999072;q;2;1024;2;48000;-16;experiment;77;odd;40853.973504999885;NA;102494.40892499842;104603.7038609993;102494.36790099935;104886.53433199943;104887.84759699956;42720.51217199987;NA;102592.31584099871;102598.94364399952;40875.814981000076;Новый эксперимент;0;26.56206399660732;25;cannot code;1024;1;7
undefined;undefined;1;1;#3d3846;psycho;undefined;undefined;undefined;undefined;0;0;26;25;25;25;25;0;NA;25;25;0;1;Sun Nov 26 00:17:07 2023;The main experiment item;yes;trait_person_exp_enhanced_ver2_project_complete.osexp;/Users/larisa/Documents;no;mono;no;18;no;white;no;yes;768;2;25;25;/Users/larisa/Documents/subject-77.csv;Melodramatic Milgram;4.0.1;Catlin;0;None;w;None;1.066187000105856;347.40793899982236;1.066187000105856;1829.568183999072;q;2;1024;2;48000;-16;experiment;77;odd;40853.973504999885;NA;102494.40892499842;107003.43796299967;104888.46671799911;107352.51461299958;107353.8235069991;42720.51217199987;NA;104987.8192340002;104998.7268799996;40875.814981000076;Новый эксперимент;0;27.628250996713177;26;thoughtful;1024;2;4
undefined;undefined;1;1;#3d3846;psycho;undefined;undefined;undefined;undefined;0;0;27;26;26;26;26;0;NA;26;26;0;1;Sun Nov 26 00:17:07 2023;The main experiment item;yes;trait_person_exp_enhanced_ver2_project_complete.osexp;/Users/larisa/Documents;no;mono;no;18;no;white;no;yes;768;3;26;26;/Users/larisa/Documents/subject-77.csv;Melodramatic Milgram;4.0.1;self;0;None;w;None;1.054081998518086;422.8002120016754;1.054081998518086;1829.568183999072;q;2;1024;2;48000;-16;experiment;77;odd;40853.973504999885;NA;102494.40892499842;109465.16898199843;107354.51942500003;109889.66489599989;109891.01094499892;42720.51217199987;NA;107454.03019500009;107459.88997099994;40875.814981000076;Новый эксперимент;0;28.682332995231263;27;winner;1024;1;3
undefined;undefined;1;1;#3d3846;psycho;undefined;undefined;undefined;undefined;0;0;28;27;27;27;27;0;NA;27;27;0;1;Sun Nov 26 00:17:07 2023;The main experiment item;yes;trait_person_exp_enhanced_ver2_project_complete.osexp;/Users/larisa/Documents;no;mono;no;18;no;white;no;yes;768;4;27;27;/Users/larisa/Documents/subject-77.csv;Melodramatic Milgram;4.0.1;acquaint2;0;None;w;None;1.0691949992178706;531.0858940010803;1.0691949992178706;1829.568183999072;q;2;1024;2;48000;-16;experiment;77;odd;40853.973504999885;NA;102494.40892499842;112003.3727029986;109891.61080199847;112536.12828299993;112537.45430799972;42720.51217199987;NA;109990.69017900001;109996.81547;40875.814981000076;Новый эксперимент;0;29.751527994449134;28;fancy;1024;0;2
undefined;undefined;1;1;#3d3846;psycho;undefined;undefined;undefined;undefined;0;0;29;28;28;28;28;0;NA;28;28;0;0;Sun Nov 26 00:17:07 2023;The main experiment item;yes;trait_person_exp_enhanced_ver2_project_complete.osexp;/Users/larisa/Documents;no;mono;no;18;no;white;no;yes;768;1;28;28;/Users/larisa/Documents/subject-77.csv;Melodramatic Milgram;4.0.1;self;0;None;w;None;1.0734930001490284;311.36205500115466;1.0734930001490284;1829.568183999072;q;2;1024;2;48000;-16;experiment;77;odd;40853.973504999885;NA;112538.14818999854;114646.10387599896;112538.07684999992;114959.5623059995;114960.9456649996;42720.51217199987;NA;112635.39213500007;112641.29525399949;40875.814981000076;Новый эксперимент;0;30.825020994598162;29;outgoing;1024;2;6
undefined;undefined;1;1;#3d3846;psycho;undefined;undefined;undefined;undefined;0;0;30;29;29;29;29;0;NA;29;29;0;3;Sun Nov 26 00:17:07 2023;The main experiment item;yes;trait_person_exp_enhanced_ver2_project_complete.osexp;/Users/larisa/Documents;no;mono;no;18;no;white;no;yes;768;2;29;29;/Users/larisa/Documents/subject-77.csv;Melodramatic Milgram;4.0.1;acquaint3;0;None;w;None;1.0656510003173025;443.19330400139734;1.0656510003173025;1829.568183999072;q;2;1024;2;48000;-16;experiment;77;odd;40853.973504999885;NA;112538.14818999854;117073.19014999848;114961.57129999847;117518.02963799855;117519.35696699911;42720.51217199987;NA;115061.51667499944;115068.0659009995;40875.814981000076;Новый эксперимент;0;31.890671994915465;30;belittled;1024;2;5
undefined;undefined;1;1;#3d3846;psycho;undefined;undefined;undefined;undefined;0;0;31;30;30;30;30;0;NA;30;30;0;3;Sun Nov 26 00:17:07 2023;The main experiment item;yes;trait_person_exp_enhanced_ver2_project_complete.osexp;/Users/larisa/Documents;no;mono;no;18;no;white;no;yes;768;3;30;30;/Users/larisa/Documents/subject-77.csv;Melodramatic Milgram;4.0.1;close3;0;None;w;None;1.0376600002928171;1130.7920119998016;1.0376600002928171;1829.568183999072;q;2;1024;2;48000;-16;experiment;77;odd;40853.973504999885;NA;112538.14818999854;119628.05585499882;117520.0762989989;120760.49865499954;120763.02575999944;42720.51217199987;NA;117616.99474399938;117622.88565800009;40875.814981000076;Новый эксперимент;0;32.92833199520828;31;chad;1024;0;5
undefined;undefined;1;1;#3d3846;psycho;undefined;undefined;undefined;undefined;0;0;32;31;31;31;31;0;NA;31;31;0;3;Sun Nov 26 00:17:07 2023;The main experiment item;yes;trait_person_exp_enhanced_ver2_project_complete.osexp;/Users/larisa/Documents;no;mono;no;18;no;white;no;yes;768;4;31;31;/Users/larisa/Documents/subject-77.csv;Melodramatic Milgram;4.0.1;Jimmy;0;None;w;None;1.0740640009316849;249.50414799968712;1.0740640009316849;1829.568183999072;q;2;1024;2;48000;-16;experiment;77;odd;40853.973504999885;NA;112538.14818999854;122876.6079879988;120764.44767499925;123127.79380399843;123129.13879699954;42720.51217199987;NA;120861.62061899995;120870.1076819998;40875.814981000076;Новый эксперимент;0;34.00239599613997;32;thoughtful;1024;0;3
undefined;undefined;1;1;#3d3846;psycho;undefined;undefined;undefined;undefined;0;0;33;32;32;32;32;0;NA;32;32;0;2;Sun Nov 26 00:17:07 2023;The main experiment item;yes;trait_person_exp_enhanced_ver2_project_complete.osexp;/Users/larisa/Documents;no;mono;no;18;no;white;no;yes;768;1;32;32;/Users/larisa/Documents/subject-77.csv;Melodramatic Milgram;4.0.1;close5;0;None;w;None;1.0695339988160413;261.9163649997063;1.0695339988160413;1829.568183999072;q;2;1024;2;48000;-16;experiment;77;odd;40853.973504999885;NA;123129.6646439987;125240.2513399993;123129.6077499992;125503.85911000012;125505.2056759996;42720.51217199987;NA;123228.90085299878;123234.926739;40875.814981000076;Новый эксперимент;0;35.07192999495601;33;fancy;1024;0;2
undefined;undefined;1;1;#3d3846;psycho;undefined;undefined;undefined;undefined;0;0;34;33;33;33;33;0;NA;33;33;0;0;Sun Nov 26 00:17:07 2023;The main experiment item;yes;trait_person_exp_enhanced_ver2_project_complete.osexp;/Users/larisa/Documents;no;mono;no;18;no;white;no;yes;768;2;33;33;/Users/larisa/Documents/subject-77.csv;Melodramatic Milgram;4.0.1;acquaint1;0;None;w;None;1.0618859996611718;241.24390500037407;1.0618859996611718;1829.568183999072;q;2;1024;2;48000;-16;experiment;77;odd;40853.973504999885;NA;123129.6646439987;127619.90271499963;125505.86637999913;127862.81534899899;127864.15819399917;42720.51217199987;NA;125606.83767299997;125614.87791299987;40875.814981000076;Новый эксперимент;0;36.13381599461718;34;miserable;1024;2;5
undefined;undefined;1;1;#3d3846;psycho;undefined;undefined;undefined;undefined;0;0;35;34;34;34;34;0;NA;34;34;0;3;Sun Nov 26 00:17:07 2023;The main experiment item;yes;trait_person_exp_enhanced_ver2_project_complete.osexp;/Users/larisa/Documents;no;mono;no;18;no;white;no;yes;768;3;34;34;/Users/larisa/Documents/subject-77.csv;Melodramatic Milgram;4.0.1;self;0;None;w;None;1.054420999935246;243.78511800023261;1.054420999935246;1829.568183999072;q;2;1024;2;48000;-16;experiment;77;odd;40853.973504999885;NA;123129.6646439987;129976.19040399877;127864.78936399908;130221.74246099894;130223.08407899982;42720.51217199987;NA;127963.31840199855;127971.2473439995;40875.814981000076;Новый эксперимент;0;37.188236994552426;35;belittled;1024;0;2
undefined;undefined;1;1;#3d3846;psycho;undefined;undefined;undefined;undefined;0;0;36;35;35;35;35;0;NA;35;35;0;3;Sun Nov 26 00:17:07 2023;The main experiment item;yes;trait_person_exp_enhanced_ver2_project_complete.osexp;/Users/larisa/Documents;no;mono;no;18;no;white;no;yes;768;4;35;35;/Users/larisa/Documents/subject-77.csv;Melodramatic Milgram;4.0.1;Jimmy;0;None;w;None;1.0502989989472553;242.26037799962796;1.0502989989472553;1829.568183999072;q;2;1024;2;48000;-16;experiment;77;odd;40853.973504999885;NA;123129.6646439987;132334.77991899964;130223.76989499935;132578.7642790001;132580.10700199884;42720.51217199987;NA;130322.23077199887;130328.43954999953;40875.814981000076;Новый эксперимент;0;38.23853599349968;36;cannot code;1024;0;2
undefined;undefined;1;1;#3d3846;psycho;undefined;undefined;undefined;undefined;0;0;37;36;36;36;36;0;NA;36;36;0;1;Sun Nov 26 00:17:07 2023;The main experiment item;yes;trait_person_exp_enhanced_ver2_project_complete.osexp;/Users/larisa/Documents;no;mono;no;18;no;white;no;yes;768;1;36;36;/Users/larisa/Documents/subject-77.csv;Melodramatic Milgram;4.0.1;acquaint4;0;None;w;None;1.0707790006417781;263.2861799993552;1.0707790006417781;1829.568183999072;q;2;1024;2;48000;-16;experiment;77;odd;40853.973504999885;NA;132580.84403799876;134689.59711599926;132580.74014500016;134954.69741299894;134956.06326799863;42720.51217199987;NA;132678.7024919995;132684.73722199997;40875.814981000076;Новый эксперимент;0;39.30931499414146;37;fancy;1024;3;4
undefined;undefined;1;1;#3d3846;psycho;undefined;undefined;undefined;undefined;0;0;38;37;37;37;37;0;NA;37;37;0;0;Sun Nov 26 00:17:07 2023;The main experiment item;yes;trait_person_exp_enhanced_ver2_project_complete.osexp;/Users/larisa/Documents;no;mono;no;18;no;white;no;yes;768;2;37;37;/Users/larisa/Documents/subject-77.csv;Melodramatic Milgram;4.0.1;Johnson;0;None;w;None;1.0583109997096471;270.3990930003638;1.0583109997096471;1829.568183999072;q;2;1024;2;48000;-16;experiment;77;odd;40853.973504999885;NA;132580.84403799876;137066.3505169996;134956.69092199934;137338.4098939987;137339.7741489989;42720.51217199987;NA;135055.16257199997;135061.22660899928;40875.814981000076;Новый эксперимент;0;40.36762599385111;38;winner;1024;0;1
undefined;undefined;1;1;#3d3846;psycho;undefined;undefined;undefined;undefined;0;0;39;38;38;38;38;0;NA;38;38;0;0;Sun Nov 26 00:17:07 2023;The main experiment item;yes;trait_person_exp_enhanced_ver2_project_complete.osexp;/Users/larisa/Documents;no;mono;no;18;no;white;no;yes;768;3;38;38;/Users/larisa/Documents/subject-77.csv;Melodramatic Milgram;4.0.1;close1;0;None;w;None;1.0640529999509454;180.73588100014604;1.0640529999509454;1829.568183999072;q;2;1024;2;48000;-16;experiment;77;odd;40853.973504999885;NA;132580.84403799876;139450.0369339985;137340.37047199853;139632.50092999986;139633.8703649999;42720.51217199987;NA;137437.1057979988;137444.9983129998;40875.814981000076;Новый эксперимент;0;41.43167899380205;39;outgoing;1024;1;0
undefined;undefined;1;1;#3d3846;psycho;undefined;undefined;undefined;undefined;0;0;40;39;39;39;39;0;NA;39;39;0;0;Sun Nov 26 00:17:07 2023;The main experiment item;yes;trait_person_exp_enhanced_ver2_project_complete.osexp;/Users/larisa/Documents;no;mono;no;18;no;white;no;yes;768;4;39;39;/Users/larisa/Documents/subject-77.csv;Melodramatic Milgram;4.0.1;self;0;None;w;None;1.0529820010415278;256.32762100032414;1.0529820010415278;1829.568183999072;q;2;1024;2;48000;-16;experiment;77;odd;40853.973504999885;NA;132580.84403799876;141746.2292759992;139634.54620899938;142004.27355299873;142005.6369169997;42720.51217199987;NA;139733.48363699915;139741.289956999;40875.814981000076;Новый эксперимент;0;42.48466099484358;40;gregarious;1024;0;3
undefined;undefined;1;1;#3d3846;psycho;undefined;undefined;undefined;undefined;0;0;41;40;40;40;40;0;NA;40;40;0;2;Sun Nov 26 00:17:07 2023;The main experiment item;yes;trait_person_exp_enhanced_ver2_project_complete.osexp;/Users/larisa/Documents;no;mono;no;18;no;white;no;yes;768;1;40;40;/Users/larisa/Documents/subject-77.csv;Melodramatic Milgram;4.0.1;close1;0;None;w;None;1.0690309991477989;265.29247500002384;1.0690309991477989;1829.568183999072;q;2;1024;2;48000;-16;experiment;77;odd;40853.973504999885;NA;142006.34054699913;144118.28251399857;142006.26601399927;144385.2840039999;144386.67334899947;42720.51217199987;NA;142105.50318599964;142113.0129659996;40875.814981000076;Новый эксперимент;0;43.55369199399138;41;gregarious;1024;2;1
undefined;undefined;1;1;#3d3846;psycho;undefined;undefined;undefined;undefined;0;0;42;41;41;41;41;0;NA;41;41;0;3;Sun Nov 26 00:17:07 2023;The main experiment item;yes;trait_person_exp_enhanced_ver2_project_complete.osexp;/Users/larisa/Documents;no;mono;no;18;no;white;no;yes;768;2;41;41;/Users/larisa/Documents/subject-77.csv;Melodramatic Milgram;4.0.1;self;0;None;w;None;1.0748550011776388;293.23907999967923;1.0748550011776388;1829.568183999072;q;2;1024;2;48000;-16;experiment;77;odd;40853.973504999885;NA;142006.34054699913;146498.27109199943;144387.29533399965;146793.19571699854;146794.59819099976;42720.51217199987;NA;144485.28425199946;144493.3935509998;40875.814981000076;Новый эксперимент;0;44.62854699516902;42;miserable;1024;2;2
undefined;undefined;1;1;#3d3846;psycho;undefined;undefined;undefined;undefined;0;0;43;42;42;42;42;0;NA;42;42;0;3;Sun Nov 26 00:17:07 2023;The main experiment item;yes;trait_person_exp_enhanced_ver2_project_complete.osexp;/Users/larisa/Documents;no;mono;no;18;no;white;no;yes;768;3;42;42;/Users/larisa/Documents/subject-77.csv;Melodramatic Milgram;4.0.1;acquaint3;0;None;w;None;1.066037999407854;258.4446689998149;1.066037999407854;1829.568183999072;q;2;1024;2;48000;-16;experiment;77;odd;40853.973504999885;NA;142006.34054699913;148904.94303299964;146795.2130550002;149165.14885099969;149166.53718399903;42720.51217199987;NA;146893.4527929996;146899.4892519986;40875.814981000076;Новый эксперимент;0;45.69458499457687;43;fancy;1024;0;1
undefined;undefined;1;1;#3d3846;psycho;undefined;undefined;undefined;undefined;0;0;44;43;43;43;43;0;NA;43;43;0;3;Sun Nov 26 00:17:07 2023;The main experiment item;yes;trait_person_exp_enhanced_ver2_project_complete.osexp;/Users/larisa/Documents;no;mono;no;18;no;white;no;yes;768;4;43;43;/Users/larisa/Documents/subject-77.csv;Melodramatic Milgram;4.0.1;Jimmy;0;None;w;None;1.064732001395896;283.741043000191;1.064732001395896;1829.568183999072;q;2;1024;2;48000;-16;experiment;77;odd;40853.973504999885;NA;142006.34054699913;151278.5709609998;149167.02335799893;151564.04020699847;151565.4268369999;42720.51217199987;NA;149265.96763699854;149273.74529499866;40875.814981000076;Новый эксперимент;0;46.75931699597277;44;cannot code;1024;0;1
undefined;undefined;1;1;#3d3846;psycho;undefined;undefined;undefined;undefined;0;0;45;44;44;44;44;0;NA;44;44;0;3;Sun Nov 26 00:17:07 2023;The main experiment item;yes;trait_person_exp_enhanced_ver2_project_complete.osexp;/Users/larisa/Documents;no;mono;no;18;no;white;no;yes;768;1;44;44;/Users/larisa/Documents/subject-77.csv;Melodramatic Milgram;4.0.1;Riddick;0;None;w;None;1.0583829989773221;1237.5160359988222;1.0583829989773221;1829.568183999072;q;2;1024;2;48000;-16;experiment;77;odd;40853.973504999885;NA;151566.21895399987;153679.79691199982;151566.14140499913;154919.08853399946;154920.47449999882;42720.51217199987;NA;151665.1875719999;151673.13135199947;40875.814981000076;Новый эксперимент;0;47.81769999495009;45;winner;1024;1;7
undefined;undefined;1;1;#3d3846;psycho;undefined;undefined;undefined;undefined;0;0;46;45;45;45;45;0;NA;45;45;0;1;Sun Nov 26 00:17:07 2023;The main experiment item;yes;trait_person_exp_enhanced_ver2_project_complete.osexp;/Users/larisa/Documents;no;mono;no;18;no;white;no;yes;768;2;45;45;/Users/larisa/Documents/subject-77.csv;Melodramatic Milgram;4.0.1;self;0;None;w;None;1.0656029990059324;573.7677659999463;1.0656029990059324;1829.568183999072;q;2;1024;2;48000;-16;experiment;77;odd;40853.973504999885;NA;151566.21895399987;157033.11676199883;154921.0616479995;157608.61806899993;157610.02890999953;42720.51217199987;NA;155020.17634299956;155028.11746599944;40875.814981000076;Новый эксперимент;0;48.88330299395602;46;thoughtful;1024;2;2
undefined;undefined;1;1;#3d3846;psycho;undefined;undefined;undefined;undefined;0;0;47;46;46;46;46;0;NA;46;46;0;2;Sun Nov 26 00:17:07 2023;The main experiment item;yes;trait_person_exp_enhanced_ver2_project_complete.osexp;/Users/larisa/Documents;no;mono;no;18;no;white;no;yes;768;3;46;46;/Users/larisa/Documents/subject-77.csv;Melodramatic Milgram;4.0.1;acquaint3;0;None;w;None;1.0671560012269765;479.47002000000793;1.0671560012269765;1829.568183999072;q;2;1024;2;48000;-16;experiment;77;odd;40853.973504999885;NA;151566.21895399987;159720.32963399944;157610.76230899926;160201.58121199894;160202.9838189992;42720.51217199987;NA;157709.09803799988;157715.33018899936;40875.814981000076;Новый эксперимент;0;49.950458995183;47;miserable;1024;0;5
undefined;undefined;1;1;#3d3846;psycho;undefined;undefined;undefined;undefined;0;0;48;47;47;47;47;0;NA;47;47;0;2;Sun Nov 26 00:17:07 2023;The main experiment item;yes;trait_person_exp_enhanced_ver2_project_complete.osexp;/Users/larisa/Documents;no;mono;no;18;no;white;no;yes;768;4;47;47;/Users/larisa/Documents/subject-77.csv;Melodramatic Milgram;4.0.1;close1;0;None;w;None;1.0622010013321415;287.5518939999747;1.0622010013321415;1829.568183999072;q;2;1024;2;48000;-16;experiment;77;odd;40853.973504999885;NA;151566.21895399987;162316.26404599956;160203.6125759987;162605.55442699842;162606.96027199994;42720.51217199987;NA;160303.6318630002;160311.4670979994;40875.814981000076;Новый эксперимент;0;51.01265999651514;48;belittled;1024;0;1
undefined;undefined;1;1;#3d3846;psycho;undefined;undefined;undefined;undefined;0;0;49;48;48;48;48;0;NA;48;48;0;0;Sun Nov 26 00:17:07 2023;The main experiment item;yes;trait_person_exp_enhanced_ver2_project_complete.osexp;/Users/larisa/Documents;no;mono;no;18;no;white;no;yes;768;1;48;48;/Users/larisa/Documents/subject-77.csv;Melodramatic Milgram;4.0.1;self;0;None;w;None;1.066114000394009;561.9153879997903;1.066114000394009;1829.568183999072;q;2;1024;2;48000;-16;experiment;77;odd;40853.973504999885;NA;162607.70837699965;164717.6269979991;162607.6400839993;165281.35403799935;165282.76893699876;42720.51217199987;NA;162704.88787799876;162711.06931599934;40875.814981000076;Новый эксперимент;0;52.07877399690915;49;outgoing;1024;0;2
undefined;undefined;1;1;#3d3846;psycho;undefined;undefined;undefined;undefined;0;0;50;49;49;49;49;0;NA;49;49;0;1;Sun Nov 26 00:17:07 2023;The main experiment item;yes;trait_person_exp_enhanced_ver2_project_complete.osexp;/Users/larisa/Documents;no;mono;no;18;no;white;no;yes;768;2;49;49;/Users/larisa/Documents/subject-77.csv;Melodramatic Milgram;4.0.1;close1;0;None;w;None;1.06975199925364;385.33600600020145;1.06975199925364;1829.568183999072;q;2;1024;2;48000;-16;experiment;77;odd;40853.973504999885;NA;162607.70837699965;167393.36864799954;165283.3060439989;167780.54684000017;167781.9643189996;42720.51217199987;NA;165382.29316599973;165388.43772699876;40875.814981000076;Новый эксперимент;0;53.14852599616279;50;cannot code;1024;0;3
undefined;undefined;1;1;#3d3846;psycho;undefined;undefined;undefined;undefined;0;0;51;50;50;50;50;0;NA;50;50;0;3;Sun Nov 26 00:17:07 2023;The main experiment item;yes;trait_person_exp_enhanced_ver2_project_complete.osexp;/Users/larisa/Documents;no;mono;no;18;no;white;no;yes;768;3;50;50;/Users/larisa/Documents/subject-77.csv;Melodramatic Milgram;4.0.1;acquaint1;0;None;w;None;1.0642150009516627;1180.479325999855;1.0642150009516627;1829.568183999072;q;2;1024;2;48000;-16;experiment;77;odd;40853.973504999885;NA;162607.70837699965;169892.967406;167782.60542699898;171075.2572329984;171076.69015699867;42720.51217199987;NA;167881.6248669991;167887.72997099842;40875.814981000076;Новый эксперимент;0;54.21274099711445;51;winner;1024;0;1
undefined;undefined;1;1;#3d3846;psycho;undefined;undefined;undefined;undefined;0;0;52;51;51;51;51;0;NA;51;51;0;3;Sun Nov 26 00:17:07 2023;The main experiment item;yes;trait_person_exp_enhanced_ver2_project_complete.osexp;/Users/larisa/Documents;no;mono;no;18;no;white;no;yes;768;4;51;51;/Users/larisa/Documents/subject-77.csv;Melodramatic Milgram;4.0.1;Jimmy;0;None;w;None;1.0421299994341098;286.76923400053056;1.0421299994341098;1829.568183999072;q;2;1024;2;48000;-16;experiment;77;odd;40853.973504999885;NA;162607.70837699965;173187.62937899918;171077.28610399863;173476.1473519993;173477.69963300016;42720.51217199987;NA;171174.86664999888;171182.8309449993;40875.814981000076;Новый эксперимент;0;55.25487099654856;52;miserable;1024;0;3
undefined;undefined;1;1;#3d3846;psycho;undefined;undefined;undefined;undefined;0;0;53;52;52;52;52;0;NA;52;52;0;2;Sun Nov 26 00:17:07 2023;The main experiment item;yes;trait_person_exp_enhanced_ver2_project_complete.osexp;/Users/larisa/Documents;no;mono;no;18;no;white;no;yes;768;1;52;52;/Users/larisa/Documents/subject-77.csv;Melodramatic Milgram;4.0.1;close4;0;None;w;None;1.07613699947251;512.8606409998611;1.07613699947251;1829.568183999072;q;2;1024;2;48000;-16;experiment;77;odd;40853.973504999885;NA;173478.79606599963;175587.491287999;173478.68011599896;176102.12292799953;176103.56339999998;42720.51217199987;NA;173574.83451299957;173580.83221299967;40875.814981000076;Новый эксперимент;0;56.33100799602107;53;fancy;1024;2;7
undefined;undefined;1;1;#3d3846;psycho;undefined;undefined;undefined;undefined;0;0;54;53;53;53;53;0;NA;53;53;0;0;Sun Nov 26 00:17:07 2023;The main experiment item;yes;trait_person_exp_enhanced_ver2_project_complete.osexp;/Users/larisa/Documents;no;mono;no;18;no;white;no;yes;768;2;53;53;/Users/larisa/Documents/subject-77.csv;Melodramatic Milgram;4.0.1;Mark;0;None;w;None;1.0558459998574108;352.5878490000032;1.0558459998574108;1829.568183999072;q;2;1024;2;48000;-16;experiment;77;odd;40853.973504999885;NA;173478.79606599963;178215.620044999;176104.28183399927;178569.95112199913;178571.40349799918;42720.51217199987;NA;176202.82301399857;176210.88175499972;40875.814981000076;Новый эксперимент;0;57.38685399587848;54;thoughtful;1024;0;2
undefined;undefined;1;1;#3d3846;psycho;undefined;undefined;undefined;undefined;0;0;55;54;54;54;54;0;NA;54;54;0;1;Sun Nov 26 00:17:07 2023;The main experiment item;yes;trait_person_exp_enhanced_ver2_project_complete.osexp;/Users/larisa/Documents;no;mono;no;18;no;white;no;yes;768;3;54;54;/Users/larisa/Documents/subject-77.csv;Melodramatic Milgram;4.0.1;self;0;None;w;None;1.0638309995410964;432.86896900099237;1.0638309995410964;1829.568183999072;q;2;1024;2;48000;-16;experiment;77;odd;40853.973504999885;NA;173478.79606599963;180682.43574999907;178571.93868299873;181117.18425999972;181118.62064199886;42720.51217199987;NA;178669.51829199935;178677.66521999874;40875.814981000076;Новый эксперимент;0;58.45068499541958;55;miserable;1024;1;1
undefined;undefined;1;1;#3d3846;psycho;undefined;undefined;undefined;undefined;0;0;56;55;55;55;55;0;NA;55;55;0;1;Sun Nov 26 00:17:07 2023;The main experiment item;yes;trait_person_exp_enhanced_ver2_project_complete.osexp;/Users/larisa/Documents;no;mono;no;18;no;white;no;yes;768;4;55;55;/Users/larisa/Documents/subject-77.csv;Melodramatic Milgram;4.0.1;acquaint2;0;None;w;None;1.0689640002674423;282.6922550011659;1.0689640002674423;1829.568183999072;q;2;1024;2;48000;-16;experiment;77;odd;40853.973504999885;NA;173478.79606599963;183228.5146389986;181119.24204699972;183512.98864299862;183514.43818400003;42720.51217199987;NA;181217.26650299935;181223.5748459989;40875.814981000076;Новый эксперимент;0;59.51964899568702;56;outgoing;1024;0;4
undefined;undefined;1;1;#3d3846;psycho;undefined;undefined;undefined;undefined;0;0;57;56;56;56;56;0;NA;56;56;0;2;Sun Nov 26 00:17:07 2023;The main experiment item;yes;trait_person_exp_enhanced_ver2_project_complete.osexp;/Users/larisa/Documents;no;mono;no;18;no;white;no;yes;768;1;56;56;/Users/larisa/Documents/subject-77.csv;Melodramatic Milgram;4.0.1;close4;0;None;w;None;1.0737419998040423;368.7178709988366;1.0737419998040423;1829.568183999072;q;2;1024;2;48000;-16;experiment;77;odd;40853.973504999885;NA;183514.94419499976;185628.430191;183514.88740700006;185999.46133299998;186000.95255699853;42720.51217199987;NA;183614.24139799963;183622.18780699914;40875.814981000076;Новый эксперимент;0;60.59339099549106;57;belittled;1024;1;0
undefined;undefined;1;1;#3d3846;psycho;undefined;undefined;undefined;undefined;0;0;58;57;57;57;57;0;NA;57;57;0;0;Sun Nov 26 00:17:07 2023;The main experiment item;yes;trait_person_exp_enhanced_ver2_project_complete.osexp;/Users/larisa/Documents;no;mono;no;18;no;white;no;yes;768;2;57;57;/Users/larisa/Documents/subject-77.csv;Melodramatic Milgram;4.0.1;Catlin;0;None;w;None;1.0716470005572774;487.9853849997744;1.0716470005572774;1829.568183999072;q;2;1024;2;48000;-16;experiment;77;odd;40853.973504999885;NA;183514.94419499976;188112.98534599884;186001.55193699902;188602.76833899843;188604.2210199994;42720.51217199987;NA;186101.35263699887;186107.77471899928;40875.814981000076;Новый эксперимент;0;61.66503799604834;58;gregarious;1024;1;2
undefined;undefined;1;1;#3d3846;psycho;undefined;undefined;undefined;undefined;0;0;59;58;58;58;58;0;NA;58;58;0;0;Sun Nov 26 00:17:07 2023;The main experiment item;yes;trait_person_exp_enhanced_ver2_project_complete.osexp;/Users/larisa/Documents;no;mono;no;18;no;white;no;yes;768;3;58;58;/Users/larisa/Documents/subject-77.csv;Melodramatic Milgram;4.0.1;acquaint2;0;None;w;None;1.0556810011621565;280.49507700052345;1.0556810011621565;1829.568183999072;q;2;1024;2;48000;-16;experiment;77;odd;40853.973504999885;NA;183514.94419499976;190718.4228369988;188604.85101199994;191000.76599899877;191002.20229699882;42720.51217199987;NA;188705.40464499936;188713.5662699984;40875.814981000076;Новый эксперимент;0;62.7207189972105;59;cannot code;1024;1;1
undefined;undefined;1;1;#3d3846;psycho;undefined;undefined;undefined;undefined;0;0;60;59;59;59;59;0;NA;59;59;0;0;Sun Nov 26 00:17:07 2023;The main experiment item;yes;trait_person_exp_enhanced_ver2_project_complete.osexp;/Users/larisa/Documents;no;mono;no;18;no;white;no;yes;768;4;59;59;/Users/larisa/Documents/subject-77.csv;Melodramatic Milgram;4.0.1;self;0;None;w;None;1.0598240005492698;279.81046300008893;1.0598240005492698;1829.568183999072;q;2;1024;2;48000;-16;experiment;77;odd;40853.973504999885;NA;183514.94419499976;193112.9783409997;191003.45128199842;193394.65830799963;193396.10765999896;42720.51217199987;NA;191100.17553499894;191107.93832199852;40875.814981000076;Новый эксперимент;0;63.78054299775977;60;miserable;1024;0;2
undefined;undefined;1;1;#3d3846;psycho;undefined;undefined;undefined;undefined;0;0;61;60;60;60;60;0;NA;60;60;0;2;Sun Nov 26 00:17:07 2023;The main experiment item;yes;trait_person_exp_enhanced_ver2_project_complete.osexp;/Users/larisa/Documents;no;mono;no;18;no;white;no;yes;768;1;60;60;/Users/larisa/Documents/subject-77.csv;Melodramatic Milgram;4.0.1;close3;0;None;w;None;1.068510999204591;264.20221999980276;1.068510999204591;1829.568183999072;q;2;1024;2;48000;-16;experiment;77;odd;40853.973504999885;NA;193396.72262299975;195507.46113499918;193396.66117999877;195773.54424999974;195775.01019099873;42720.51217199987;NA;193494.92988000019;193500.92404499993;40875.814981000076;Новый эксперимент;0;64.84905399696436;61;winner;1024;1;5
undefined;undefined;1;1;#3d3846;psycho;undefined;undefined;undefined;undefined;0;0;62;61;61;61;61;0;NA;61;61;0;0;Sun Nov 26 00:17:07 2023;The main experiment item;yes;trait_person_exp_enhanced_ver2_project_complete.osexp;/Users/larisa/Documents;no;mono;no;18;no;white;no;yes;768;2;61;61;/Users/larisa/Documents/subject-77.csv;Melodramatic Milgram;4.0.1;acquaint2;0;None;w;None;1.0513619999983348;251.2945119997603;1.0513619999983348;1829.568183999072;q;2;1024;2;48000;-16;experiment;77;odd;40853.973504999885;NA;193396.72262299975;197885.3314759999;195775.51019899873;198138.58853799867;198140.03975099878;42720.51217199987;NA;195874.48307799967;195880.34185200013;40875.814981000076;Новый эксперимент;0;65.90041599696269;62;chad;1024;0;4
undefined;undefined;1;1;#3d3846;psycho;undefined;undefined;undefined;undefined;0;0;63;62;62;62;62;0;NA;62;62;0;0;Sun Nov 26 00:17:07 2023;The main experiment item;yes;trait_person_exp_enhanced_ver2_project_complete.osexp;/Users/larisa/Documents;no;mono;no;18;no;white;no;yes;768;3;62;62;/Users/larisa/Documents/subject-77.csv;Melodramatic Milgram;4.0.1;Jimmy;0;None;w;None;1.0634499994921498;284.5291939993622;1.0634499994921498;1829.568183999072;q;2;1024;2;48000;-16;experiment;77;odd;40853.973504999885;NA;193396.72262299975;200247.01804899995;198140.6494899984;200533.36959499939;200534.83800899994;42720.51217199987;NA;198235.73880000005;198241.6196319991;40875.814981000076;Новый эксперимент;0;66.96386599645484;63;fancy;1024;0;5
undefined;undefined;1;1;#3d3846;psycho;undefined;undefined;undefined;undefined;0;0;64;63;63;63;63;0;NA;63;63;0;0;Sun Nov 26 00:17:07 2023;The main experiment item;yes;trait_person_exp_enhanced_ver2_project_complete.osexp;/Users/larisa/Documents;no;mono;no;18;no;white;no;yes;768;4;63;63;/Users/larisa/Documents/subject-77.csv;Melodramatic Milgram;4.0.1;self;0;None;w;None;1.0565679986029863;707.0594499982544;1.0565679986029863;1829.568183999072;q;2;1024;2;48000;-16;experiment;77;odd;40853.973504999885;NA;193396.72262299975;202646.44036800019;200535.34963899985;203355.38521499984;203356.8522179994;42720.51217199987;NA;200633.66367900016;200641.6261509985;40875.814981000076;Новый эксперимент;0;68.02043399505783;64;thoughtful;1024;0;2
undefined;undefined;1;1;#3d3846;psycho;undefined;undefined;undefined;undefined;0;0;65;64;64;64;64;0;NA;64;64;0;1;Sun Nov 26 00:17:07 2023;The main experiment item;yes;trait_person_exp_enhanced_ver2_project_complete.osexp;/Users/larisa/Documents;no;mono;no;18;no;white;no;yes;768;1;64;64;/Users/larisa/Documents/subject-77.csv;Melodramatic Milgram;4.0.1;acquaint1;0;None;w;None;1.0753079986898229;393.8257499994361;1.0753079986898229;1829.568183999072;q;2;1024;2;48000;-16;experiment;77;odd;40853.973504999885;NA;203357.51444099878;205467.50073099975;203357.44993299886;205863.14931000015;205864.65282899915;42720.51217199987;NA;203455.0541139997;203461.1989449986;40875.814981000076;Новый эксперимент;0;69.09574199374765;65;fancy;1024;1;3
undefined;undefined;1;1;#3d3846;psycho;undefined;undefined;undefined;undefined;0;0;66;65;65;65;65;0;NA;65;65;0;3;Sun Nov 26 00:17:07 2023;The main experiment item;yes;trait_person_exp_enhanced_ver2_project_complete.osexp;/Users/larisa/Documents;no;mono;no;18;no;white;no;yes;768;2;65;65;/Users/larisa/Documents/subject-77.csv;Melodramatic Milgram;4.0.1;close2;0;None;w;None;1.0706979992392007;571.0545590008842;1.0706979992392007;1829.568183999072;q;2;1024;2;48000;-16;experiment;77;odd;40853.973504999885;NA;203357.51444099878;207976.20238199853;205865.28032800014;208549.11948299923;208550.60709699866;42720.51217199987;NA;205964.59340399998;205971.0688799987;40875.814981000076;Новый эксперимент;0;70.16643999298685;66;cannot code;1024;1;5
undefined;undefined;1;1;#3d3846;psycho;undefined;undefined;undefined;undefined;0;0;67;66;66;66;66;0;NA;66;66;0;0;Sun Nov 26 00:17:07 2023;The main experiment item;yes;trait_person_exp_enhanced_ver2_project_complete.osexp;/Users/larisa/Documents;no;mono;no;18;no;white;no;yes;768;3;66;66;/Users/larisa/Documents/subject-77.csv;Melodramatic Milgram;4.0.1;Catlin;0;None;w;None;1.0599229990621097;272.29753600113327;1.0599229990621097;1829.568183999072;q;2;1024;2;48000;-16;experiment;77;odd;40853.973504999885;NA;203357.51444099878;210662.97957799907;208551.20647900004;210937.08945599973;210938.57848299923;42720.51217199987;NA;208650.0624319997;208657.9462789996;40875.814981000076;Новый эксперимент;0;71.22636299204896;67;belittled;1024;0;3
undefined;undefined;1;1;#3d3846;psycho;undefined;undefined;undefined;undefined;0;0;68;67;67;67;67;0;NA;67;67;0;0;Sun Nov 26 00:17:07 2023;The main experiment item;yes;trait_person_exp_enhanced_ver2_project_complete.osexp;/Users/larisa/Documents;no;mono;no;18;no;white;no;yes;768;4;67;67;/Users/larisa/Documents/subject-77.csv;Melodramatic Milgram;4.0.1;self;0;None;w;None;1.0617269999929704;253.95227900115424;1.0617269999929704;1829.568183999072;q;2;1024;2;48000;-16;experiment;77;odd;40853.973504999885;NA;203357.51444099878;213047.249113999;210939.1816589996;213303.0250390002;213304.52008799877;42720.51217199987;NA;211036.133272999;211042.02772699864;40875.814981000076;Новый эксперимент;0;72.28808999204193;68;winner;1024;0;0
undefined;undefined;1;1;#3d3846;psycho;undefined;undefined;undefined;undefined;0;0;69;68;68;68;68;0;NA;68;68;0;0;Sun Nov 26 00:17:07 2023;The main experiment item;yes;trait_person_exp_enhanced_ver2_project_complete.osexp;/Users/larisa/Documents;no;mono;no;18;no;white;no;yes;768;1;68;68;/Users/larisa/Documents/subject-77.csv;Melodramatic Milgram;4.0.1;self;0;None;w;None;1.0387490001157857;396.36761800100794;1.0387490001157857;1829.568183999072;q;2;1024;2;48000;-16;experiment;77;odd;40853.973504999885;NA;213305.13259100006;215417.6379059991;213305.07105399919;215815.84152899997;215817.32587099943;42720.51217199987;NA;213403.05979999903;213411.1653809996;40875.814981000076;Новый эксперимент;0;73.32683899215772;69;cannot code;1024;2;2
undefined;undefined;1;1;#3d3846;psycho;undefined;undefined;undefined;undefined;0;0;70;69;69;69;69;0;NA;69;69;0;3;Sun Nov 26 00:17:07 2023;The main experiment item;yes;trait_person_exp_enhanced_ver2_project_complete.osexp;/Users/larisa/Documents;no;mono;no;18;no;white;no;yes;768;2;69;69;/Users/larisa/Documents/subject-77.csv;Melodramatic Milgram;4.0.1;close3;0;None;w;None;1.0645560014236253;291.927332998981;1.0645560014236253;1829.568183999072;q;2;1024;2;48000;-16;experiment;77;odd;40853.973504999885;NA;213305.13259100006;217925.39352899985;215817.75297999958;218219.3575989986;218220.87860899954;42720.51217199987;NA;215914.32530400017;215920.45915800007;40875.814981000076;Новый эксперимент;0;74.39139499358134;70;miserable;1024;2;5
undefined;undefined;1;1;#3d3846;psycho;undefined;undefined;undefined;undefined;0;0;71;70;70;70;70;0;NA;70;70;0;3;Sun Nov 26 00:17:07 2023;The main experiment item;yes;trait_person_exp_enhanced_ver2_project_complete.osexp;/Users/larisa/Documents;no;mono;no;18;no;white;no;yes;768;3;70;70;/Users/larisa/Documents/subject-77.csv;Melodramatic Milgram;4.0.1;acquaint3;0;None;w;None;1.0781379987602122;539.8927070000209;1.0781379987602122;1829.568183999072;q;2;1024;2;48000;-16;experiment;77;odd;40853.973504999885;NA;213305.13259100006;220330.27577499888;218221.2856469996;220872.41253899992;220873.98321799992;42720.51217199987;NA;218319.06882600015;218325.25112899928;40875.814981000076;Новый эксперимент;0;75.46953299234156;71;belittled;1024;0;1
undefined;undefined;1;1;#3d3846;psycho;undefined;undefined;undefined;undefined;0;0;72;71;71;71;71;0;NA;71;71;0;3;Sun Nov 26 00:17:07 2023;The main experiment item;yes;trait_person_exp_enhanced_ver2_project_complete.osexp;/Users/larisa/Documents;no;mono;no;18;no;white;no;yes;768;4;71;71;/Users/larisa/Documents/subject-77.csv;Melodramatic Milgram;4.0.1;Jimmy;0;None;w;None;1.0717869990912732;515.2757420000853;1.0717869990912732;1829.568183999072;q;2;1024;2;48000;-16;experiment;77;odd;40853.973504999885;NA;213305.13259100006;222988.57322799996;220874.47376699856;223505.76440499935;223507.28512999922;42720.51217199987;NA;220976.62089299958;220983.5740089984;40875.814981000076;Новый эксперимент;0;76.54131999143283;72;outgoing;1024;0;0
undefined;undefined;1;1;#3d3846;psycho;undefined;undefined;undefined;undefined;0;0;73;72;72;72;72;0;NA;72;72;0;3;Sun Nov 26 00:17:07 2023;The main experiment item;yes;trait_person_exp_enhanced_ver2_project_complete.osexp;/Users/larisa/Documents;no;mono;no;18;no;white;no;yes;768;1;72;72;/Users/larisa/Documents/subject-77.csv;Melodramatic Milgram;4.0.1;Catlin;0;None;w;None;1.063630999851739;271.2907069999201;1.063630999851739;1829.568183999072;q;2;1024;2;48000;-16;experiment;77;odd;40853.973504999885;NA;223507.7570029989;225618.4640219999;223507.70988899967;225891.72684599907;225893.25430099963;42720.51217199987;NA;223605.44966999989;223611.92684500018;40875.814981000076;Новый эксперимент;0;77.60495099128457;73;belittled;1024;1;0
undefined;undefined;1;1;#3d3846;psycho;undefined;undefined;undefined;undefined;0;0;74;73;73;73;73;0;NA;73;73;0;2;Sun Nov 26 00:17:07 2023;The main experiment item;yes;trait_person_exp_enhanced_ver2_project_complete.osexp;/Users/larisa/Documents;no;mono;no;18;no;white;no;yes;768;2;73;73;/Users/larisa/Documents/subject-77.csv;Melodramatic Milgram;4.0.1;acquaint2;0;None;w;None;1.0661619999154937;1081.2343529996579;1.0661619999154937;1829.568183999072;q;2;1024;2;48000;-16;experiment;77;odd;40853.973504999885;NA;223507.7570029989;228005.42444299936;225893.8666209997;229088.607624999;229090.1316399995;42720.51217199987;NA;225992.39713299903;226000.54988299962;40875.814981000076;Новый эксперимент;0;78.67111299120006;74;gregarious;1024;2;3
undefined;undefined;1;1;#3d3846;psycho;undefined;undefined;undefined;undefined;0;0;75;74;74;74;74;0;NA;74;74;0;2;Sun Nov 26 00:17:07 2023;The main experiment item;yes;trait_person_exp_enhanced_ver2_project_complete.osexp;/Users/larisa/Documents;no;mono;no;18;no;white;no;yes;768;3;74;74;/Users/larisa/Documents/subject-77.csv;Melodramatic Milgram;4.0.1;self;0;None;w;None;1.066990000254009;328.20799500041176;1.066990000254009;1829.568183999072;q;2;1024;2;48000;-16;experiment;77;odd;40853.973504999885;NA;223507.7570029989;231199.39454699852;229090.6308119993;231529.45607699984;231531.00553500006;42720.51217199987;NA;229188.67945799866;229194.5540500001;40875.814981000076;Новый эксперимент;0;79.73810299145407;75;fancy;1024;1;1
undefined;undefined;1;1;#3d3846;psycho;undefined;undefined;undefined;undefined;0;0;76;75;75;75;75;0;NA;75;75;0;2;Sun Nov 26 00:17:07 2023;The main experiment item;yes;trait_person_exp_enhanced_ver2_project_complete.osexp;/Users/larisa/Documents;no;mono;no;18;no;white;no;yes;768;4;75;75;/Users/larisa/Documents/subject-77.csv;Melodramatic Milgram;4.0.1;close2;0;None;w;None;1.0579039990261663;794.0200469984266;1.0579039990261663;1829.568183999072;q;2;1024;2;48000;-16;experiment;77;odd;40853.973504999885;NA;223507.7570029989;233643.49180099997;231531.67557999952;234439.37442199967;234440.92204499975;42720.51217199987;NA;231631.88224999976;231638.51474399964;40875.814981000076;Новый эксперимент;0;80.79600699048024;76;miserable;1024;0;0
undefined;undefined;1;1;#3d3846;psycho;undefined;undefined;undefined;undefined;0;0;77;76;76;76;76;0;NA;76;76;0;3;Sun Nov 26 00:17:07 2023;The main experiment item;yes;trait_person_exp_enhanced_ver2_project_complete.osexp;/Users/larisa/Documents;no;mono;no;18;no;white;no;yes;768;1;76;76;/Users/larisa/Documents/subject-77.csv;Melodramatic Milgram;4.0.1;Johnson;0;None;w;None;1.0642300003091805;295.3966919994564;1.0642300003091805;1829.568183999072;q;2;1024;2;48000;-16;experiment;77;odd;40853.973504999885;NA;234441.58294699993;236551.9945899996;234441.52444300015;236849.33122699842;236850.87543999907;42720.51217199987;NA;234538.9289979994;234545.46751499947;40875.814981000076;Новый эксперимент;0;81.86023699078942;77;cannot code;1024;1;5
undefined;undefined;1;1;#3d3846;psycho;undefined;undefined;undefined;undefined;0;0;78;77;77;77;77;0;NA;77;77;0;0;Sun Nov 26 00:17:07 2023;The main experiment item;yes;trait_person_exp_enhanced_ver2_project_complete.osexp;/Users/larisa/Documents;no;mono;no;18;no;white;no;yes;768;2;77;77;/Users/larisa/Documents/subject-77.csv;Melodramatic Milgram;4.0.1;acquaint2;0;None;w;None;1.0642689994419925;244.89374800032238;1.0642689994419925;1829.568183999072;q;2;1024;2;48000;-16;experiment;77;odd;40853.973504999885;NA;234441.58294699993;238959.38525099884;236851.47599799893;239206.2227539991;239207.76349100017;42720.51217199987;NA;236948.48954400004;236954.4447089993;40875.814981000076;Новый эксперимент;0;82.92450599023141;78;chad;1024;1;3
undefined;undefined;1;1;#3d3846;psycho;undefined;undefined;undefined;undefined;0;0;79;78;78;78;78;0;NA;78;78;0;0;Sun Nov 26 00:17:07 2023;The main experiment item;yes;trait_person_exp_enhanced_ver2_project_complete.osexp;/Users/larisa/Documents;no;mono;no;18;no;white;no;yes;768;3;78;78;/Users/larisa/Documents/subject-77.csv;Melodramatic Milgram;4.0.1;close2;0;None;w;None;1.059464999329066;303.8417490006541;1.059464999329066;1829.568183999072;q;2;1024;2;48000;-16;experiment;77;odd;40853.973504999885;NA;234441.58294699993;241316.3871029992;239208.31620799983;241622.24582099952;241623.78316200012;42720.51217199987;NA;239305.71906399928;239311.45144399852;40875.814981000076;Новый эксперимент;0;83.98397098956048;79;fancy;1024;1;0
undefined;undefined;1;1;#3d3846;psycho;undefined;undefined;undefined;undefined;0;0;80;79;79;79;79;0;NA;79;79;0;0;Sun Nov 26 00:17:07 2023;The main experiment item;yes;trait_person_exp_enhanced_ver2_project_complete.osexp;/Users/larisa/Documents;no;mono;no;18;no;white;no;yes;768;4;79;79;/Users/larisa/Documents/subject-77.csv;Melodramatic Milgram;4.0.1;self;0;None;w;None;1.0647339986171573;325.9226249992789;1.0647339986171573;1829.568183999072;q;2;1024;2;48000;-16;experiment;77;odd;40853.973504999885;NA;234441.58294699993;243736.3000280002;241624.22030999913;244064.27032600006;244065.81739099964;42720.51217199987;NA;241723.56118700007;241731.34157899948;40875.814981000076;Новый эксперимент;0;85.04870498817763;80;gregarious;1024;0;2
undefined;undefined;1;1;#3d3846;psycho;undefined;undefined;undefined;undefined;0;0;81;80;80;80;80;0;NA;80;80;0;2;Sun Nov 26 00:17:07 2023;The main experiment item;yes;trait_person_exp_enhanced_ver2_project_complete.osexp;/Users/larisa/Documents;no;mono;no;18;no;white;no;yes;768;1;80;80;/Users/larisa/Documents/subject-77.csv;Melodramatic Milgram;4.0.1;close5;0;None;w;None;1.0729379991826136;224.63418499863474;1.0729379991826136;1829.568183999072;q;2;1024;2;48000;-16;experiment;77;odd;40853.973504999885;NA;244066.51687699923;246176.4333760002;244066.4445909988;246402.99066499938;246404.56728999925;42720.51217199987;NA;244164.12782599946;244169.98561699985;40875.814981000076;Новый эксперимент;0;86.12164298736025;81;fancy;1024;1;7
undefined;undefined;1;1;#3d3846;psycho;undefined;undefined;undefined;undefined;0;0;82;81;81;81;81;0;NA;81;81;0;1;Sun Nov 26 00:17:07 2023;The main experiment item;yes;trait_person_exp_enhanced_ver2_project_complete.osexp;/Users/larisa/Documents;no;mono;no;18;no;white;no;yes;768;2;81;81;/Users/larisa/Documents/subject-77.csv;Melodramatic Milgram;4.0.1;Catlin;0;None;w;None;1.0625470004160888;267.64319100038847;1.0625470004160888;1829.568183999072;q;2;1024;2;48000;-16;experiment;77;odd;40853.973504999885;NA;244066.51687699923;248515.61027499882;246405.0808489992;248785.2220269997;248786.77920999873;42720.51217199987;NA;246504.36776399874;246510.7952239996;40875.814981000076;Новый эксперимент;0;87.18418998777634;82;thoughtful;1024;2;1
undefined;undefined;1;1;#3d3846;psycho;undefined;undefined;undefined;undefined;0;0;83;82;82;82;82;0;NA;82;82;0;1;Sun Nov 26 00:17:07 2023;The main experiment item;yes;trait_person_exp_enhanced_ver2_project_complete.osexp;/Users/larisa/Documents;no;mono;no;18;no;white;no;yes;768;3;82;82;/Users/larisa/Documents/subject-77.csv;Melodramatic Milgram;4.0.1;self;0;None;w;None;1.0656860012968536;412.95418400113704;1.0656860012968536;1829.568183999072;q;2;1024;2;48000;-16;experiment;77;odd;40853.973504999885;NA;244066.51687699923;250899.96046299895;248787.3785920001;251314.9179389984;251316.4833689989;42720.51217199987;NA;248886.00078999845;248894.16649199848;40875.814981000076;Новый эксперимент;0;88.24987598907319;83;outgoing;1024;1;4
undefined;undefined;1;1;#3d3846;psycho;undefined;undefined;undefined;undefined;0;0;84;83;83;83;83;0;NA;83;83;0;1;Sun Nov 26 00:17:07 2023;The main experiment item;yes;trait_person_exp_enhanced_ver2_project_complete.osexp;/Users/larisa/Documents;no;mono;no;18;no;white;no;yes;768;4;83;83;/Users/larisa/Documents/subject-77.csv;Melodramatic Milgram;4.0.1;acquaint2;0;None;w;None;1.0717780005652457;295.5076689995476;1.0717780005652457;1829.568183999072;q;2;1024;2;48000;-16;experiment;77;odd;40853.973504999885;NA;244066.51687699923;253425.34828799946;251317.8589829986;253722.79516699928;253724.37387099853;42720.51217199987;NA;251414.37768899958;251420.34760999924;40875.814981000076;Новый эксперимент;0;89.32165398963843;84;chad;1024;0;3
undefined;undefined;1;1;#3d3846;psycho;undefined;undefined;undefined;undefined;0;0;85;84;84;84;84;0;NA;84;84;0;1;Sun Nov 26 00:17:07 2023;The main experiment item;yes;trait_person_exp_enhanced_ver2_project_complete.osexp;/Users/larisa/Documents;no;mono;no;18;no;white;no;yes;768;1;84;84;/Users/larisa/Documents/subject-77.csv;Melodramatic Milgram;4.0.1;acquaint5;0;None;w;None;1.0790409996698145;264.137582000345;1.0790409996698145;1829.568183999072;q;2;1024;2;48000;-16;experiment;77;odd;40853.973504999885;NA;253725.02267299933;255834.6504229994;253724.9600340001;256100.92729099962;256102.54638199875;42720.51217199987;NA;253822.0927450002;253830.076496999;40875.814981000076;Новый эксперимент;0;90.40069498930825;85;chad;1024;1;2
undefined;undefined;1;1;#3d3846;psycho;undefined;undefined;undefined;undefined;0;0;86;85;85;85;85;0;NA;85;85;0;3;Sun Nov 26 00:17:07 2023;The main experiment item;yes;trait_person_exp_enhanced_ver2_project_complete.osexp;/Users/larisa/Documents;no;mono;no;18;no;white;no;yes;768;2;85;85;/Users/larisa/Documents/subject-77.csv;Melodramatic Milgram;4.0.1;self;0;None;w;None;1.0363139990658965;305.4690839999239;1.0363139990658965;1829.568183999072;q;2;1024;2;48000;-16;experiment;77;odd;40853.973504999885;NA;253725.02267299933;258213.20268399903;256103.1215619987;258520.62533299977;258522.18557499873;42720.51217199987;NA;256200.00764999894;256208.2567509988;40875.814981000076;Новый эксперимент;0;91.43700898837415;86;miserable;1024;2;3
undefined;undefined;1;1;#3d3846;psycho;undefined;undefined;undefined;undefined;0;0;87;86;86;86;86;0;NA;86;86;0;3;Sun Nov 26 00:17:07 2023;The main experiment item;yes;trait_person_exp_enhanced_ver2_project_complete.osexp;/Users/larisa/Documents;no;mono;no;18;no;white;no;yes;768;3;86;86;/Users/larisa/Documents/subject-77.csv;Melodramatic Milgram;4.0.1;close3;0;None;w;None;1.0358549989177845;343.4794529985229;1.0358549989177845;1829.568183999072;q;2;1024;2;48000;-16;experiment;77;odd;40853.973504999885;NA;253725.02267299933;260632.2025019999;258522.59927399975;260977.63263399975;260979.19329700017;42720.51217199987;NA;258620.22701999923;258627.18700299956;40875.814981000076;Новый эксперимент;0;92.47286398729193;87;fancy;1024;0;5
undefined;undefined;1;1;#3d3846;psycho;undefined;undefined;undefined;undefined;0;0;88;87;87;87;87;0;NA;87;87;0;3;Sun Nov 26 00:17:07 2023;The main experiment item;yes;trait_person_exp_enhanced_ver2_project_complete.osexp;/Users/larisa/Documents;no;mono;no;18;no;white;no;yes;768;4;87;87;/Users/larisa/Documents/subject-77.csv;Melodramatic Milgram;4.0.1;Jimmy;0;None;w;None;1.0572170012746938;262.9275180007098;1.0572170012746938;1829.568183999072;q;2;1024;2;48000;-16;experiment;77;odd;40853.973504999885;NA;253725.02267299933;263090.5880149985;260979.69405299955;263355.4773509986;263357.05297799903;42720.51217199987;NA;261077.27990199963;261085.7567539988;40875.814981000076;Новый эксперимент;0;93.53008098856662;88;thoughtful;1024;0;0
undefined;undefined;1;1;#3d3846;psycho;undefined;undefined;undefined;undefined;0;0;89;88;88;88;88;0;NA;88;88;0;0;Sun Nov 26 00:17:07 2023;The main experiment item;yes;trait_person_exp_enhanced_ver2_project_complete.osexp;/Users/larisa/Documents;no;mono;no;18;no;white;no;yes;768;1;88;88;/Users/larisa/Documents/subject-77.csv;Melodramatic Milgram;4.0.1;self;0;None;w;None;1.0591310001327656;160.32526200072607;1.0591310001327656;1829.568183999072;q;2;1024;2;48000;-16;experiment;77;odd;40853.973504999885;NA;263357.7540699989;265466.1590429987;263357.67807899904;265628.5507269986;265630.1288179984;42720.51217199987;NA;263454.8744399999;263460.998003;40875.814981000076;Новый эксперимент;0;94.58921198869939;89;fancy;1024;2;3
undefined;undefined;1;1;#3d3846;psycho;undefined;undefined;undefined;undefined;0;0;90;89;89;89;89;0;NA;89;89;0;2;Sun Nov 26 00:17:07 2023;The main experiment item;yes;trait_person_exp_enhanced_ver2_project_complete.osexp;/Users/larisa/Documents;no;mono;no;18;no;white;no;yes;768;2;89;89;/Users/larisa/Documents/subject-77.csv;Melodramatic Milgram;4.0.1;Mark;0;None;w;None;1.0635630005854182;137.79237299965462;1.0635630005854182;1829.568183999072;q;2;1024;2;48000;-16;experiment;77;odd;40853.973504999885;NA;263357.7540699989;267742.68824799947;265630.7914659992;267882.4204979992;267884.0071249997;42720.51217199987;NA;265728.3266269987;265736.3171859997;40875.814981000076;Новый эксперимент;0;95.65277498928481;90;cannot code;1024;0;5
undefined;undefined;1;1;#3d3846;psycho;undefined;undefined;undefined;undefined;0;0;91;90;90;90;90;0;NA;90;90;0;2;Sun Nov 26 00:17:07 2023;The main experiment item;yes;trait_person_exp_enhanced_ver2_project_complete.osexp;/Users/larisa/Documents;no;mono;no;18;no;white;no;yes;768;3;90;90;/Users/larisa/Documents/subject-77.csv;Melodramatic Milgram;4.0.1;acquaint1;0;None;w;None;1.0460630001034588;319.05765999906;1.0460630001034588;1829.568183999072;q;2;1024;2;48000;-16;experiment;77;odd;40853.973504999885;NA;263357.7540699989;269996.17459;267884.53303999995;270317.1953419987;270318.7752329995;42720.51217199987;NA;267984.72491899884;267991.05379999854;40875.814981000076;Новый эксперимент;0;96.69883798938827;91;belittled;1024;1;0
undefined;undefined;1;1;#3d3846;psycho;undefined;undefined;undefined;undefined;0;0;92;91;91;91;91;0;NA;91;91;0;2;Sun Nov 26 00:17:07 2023;The main experiment item;yes;trait_person_exp_enhanced_ver2_project_complete.osexp;/Users/larisa/Documents;no;mono;no;18;no;white;no;yes;768;4;91;91;/Users/larisa/Documents/subject-77.csv;Melodramatic Milgram;4.0.1;close2;0;None;w;None;1.039315999194514;279.06382800027495;1.039315999194514;1829.568183999072;q;2;1024;2;48000;-16;experiment;77;odd;40853.973504999885;NA;263357.7540699989;272429.3235659989;270319.3732399995;272710.33992999943;272711.9254529989;42720.51217199987;NA;270418.11554599914;270424.2142459989;40875.814981000076;Новый эксперимент;0;97.73815398858278;92;gregarious;1024;0;2
undefined;undefined;1;1;#3d3846;psycho;undefined;undefined;undefined;undefined;0;0;93;92;92;92;92;0;NA;92;92;0;3;Sun Nov 26 00:17:07 2023;The main experiment item;yes;trait_person_exp_enhanced_ver2_project_complete.osexp;/Users/larisa/Documents;no;mono;no;18;no;white;no;yes;768;1;92;92;/Users/larisa/Documents/subject-77.csv;Melodramatic Milgram;4.0.1;Johnson;0;None;w;None;1.0644250014447607;38.35504900052911;1.0644250014447607;1829.568183999072;q;2;1024;2;48000;-16;experiment;77;odd;40853.973504999885;NA;272712.4048199985;274823.00810499873;272712.3651009988;274863.3196189985;274864.92688799987;42720.51217199987;NA;272810.043866999;272818.0669509984;40875.814981000076;Новый эксперимент;0;98.80257899002754;93;fancy;1024;1;6
undefined;undefined;1;1;#3d3846;psycho;undefined;undefined;undefined;undefined;0;0;94;93;93;93;93;0;NA;93;93;0;1;Sun Nov 26 00:17:07 2023;The main experiment item;yes;trait_person_exp_enhanced_ver2_project_complete.osexp;/Users/larisa/Documents;no;mono;no;18;no;white;no;yes;768;2;93;93;/Users/larisa/Documents/subject-77.csv;Melodramatic Milgram;4.0.1;self;0;None;w;None;1.0705170007422566;314.25739199947566;1.0705170007422566;1829.568183999072;q;2;1024;2;48000;-16;experiment;77;odd;40853.973504999885;NA;272712.4048199985;276978.89676699927;274865.55987300014;277295.1605549988;277296.7771619988;42720.51217199987;NA;274964.8581579986;274972.77645399846;40875.814981000076;Новый эксперимент;0;99.8730959907698;94;belittled;1024;1;1
undefined;undefined;1;1;#3d3846;psycho;undefined;undefined;undefined;undefined;0;0;95;94;94;94;94;0;NA;94;94;0;1;Sun Nov 26 00:17:07 2023;The main experiment item;yes;trait_person_exp_enhanced_ver2_project_complete.osexp;/Users/larisa/Documents;no;mono;no;18;no;white;no;yes;768;3;94;94;/Users/larisa/Documents/subject-77.csv;Melodramatic Milgram;4.0.1;close2;0;None;w;None;1.067830999090802;473.9317009989172;1.067830999090802;1829.568183999072;q;2;1024;2;48000;-16;experiment;77;odd;40853.973504999885;NA;272712.4048199985;279408.2064300001;277297.40292599855;279884.1187729995;279885.7380190002;42720.51217199987;NA;277395.4423679988;277403.32424199913;40875.814981000076;Новый эксперимент;0;100.9409269898606;95;outgoing;1024;0;2
undefined;undefined;1;1;#3d3846;psycho;undefined;undefined;undefined;undefined;0;0;96;95;95;95;95;0;NA;95;95;0;1;Sun Nov 26 00:17:07 2023;The main experiment item;yes;trait_person_exp_enhanced_ver2_project_complete.osexp;/Users/larisa/Documents;no;mono;no;18;no;white;no;yes;768;4;95;95;/Users/larisa/Documents/subject-77.csv;Melodramatic Milgram;4.0.1;acquaint1;0;None;w;None;1.056460001564119;287.80621999973664;1.056460001564119;1829.568183999072;q;2;1024;2;48000;-16;experiment;77;odd;40853.973504999885;NA;272712.4048199985;281997.2030199988;279886.3274699997;282287.0331059985;282288.641015999;42720.51217199987;NA;279985.5532299989;279992.119863;40875.814981000076;Новый эксперимент;0;101.99738699142472;96;cannot code;1024;0;0
undefined;undefined;1;1;#3d3846;psycho;undefined;undefined;undefined;undefined;0;0;97;96;96;96;96;0;NA;96;96;0;1;Sun Nov 26 00:17:07 2023;The main experiment item;yes;trait_person_exp_enhanced_ver2_project_complete.osexp;/Users/larisa/Documents;no;mono;no;18;no;white;no;yes;768;1;96;96;/Users/larisa/Documents/subject-77.csv;Melodramatic Milgram;4.0.1;acquaint1;0;None;w;None;1.070610000169836;400.67014200030826;1.070610000169836;1829.568183999072;q;2;1024;2;48000;-16;experiment;77;odd;40853.973504999885;NA;282289.20456299966;284398.27378299925;282289.14938999875;284800.90359399945;284802.5413849991;42720.51217199987;NA;282387.02876199933;282393.150287;40875.814981000076;Новый эксперимент;0;103.06799699159455;97;outgoing;1024;3;1
undefined;undefined;1;1;#3d3846;psycho;undefined;undefined;undefined;undefined;0;0;98;97;97;97;97;0;NA;97;97;0;3;Sun Nov 26 00:17:07 2023;The main experiment item;yes;trait_person_exp_enhanced_ver2_project_complete.osexp;/Users/larisa/Documents;no;mono;no;18;no;white;no;yes;768;2;97;97;/Users/larisa/Documents/subject-77.csv;Melodramatic Milgram;4.0.1;close4;0;None;w;None;1.070833000994753;349.8464549993514;1.070833000994753;1829.568183999072;q;2;1024;2;48000;-16;experiment;77;odd;40853.973504999885;NA;282289.20456299966;286914.9723869996;284803.1399020001;287266.84081099846;287268.47703699965;42720.51217199987;NA;284901.8517240002;284909.93829899887;40875.814981000076;Новый эксперимент;0;104.13882999258931;98;miserable;1024;2;1
undefined;undefined;1;1;#3d3846;psycho;undefined;undefined;undefined;undefined;0;0;99;98;98;98;98;0;NA;98;98;0;0;Sun Nov 26 00:17:07 2023;The main experiment item;yes;trait_person_exp_enhanced_ver2_project_complete.osexp;/Users/larisa/Documents;no;mono;no;18;no;white;no;yes;768;3;98;98;/Users/larisa/Documents/subject-77.csv;Melodramatic Milgram;4.0.1;Mark;0;None;w;None;1.0623729994986206;250.47042000008514;1.0623729994986206;1829.568183999072;q;2;1024;2;48000;-16;experiment;77;odd;40853.973504999885;NA;282289.20456299966;289380.3170539995;287269.05377899855;289632.7579680001;289634.38818099897;42720.51217199987;NA;287367.03494099854;287375.4072569991;40875.814981000076;Новый эксперимент;0;105.20120299208793;99;cannot code;1024;1;5
undefined;undefined;1;1;#3d3846;psycho;undefined;undefined;undefined;undefined;0;0;100;99;99;99;99;0;NA;99;99;0;0;Sun Nov 26 00:17:07 2023;The main experiment item;yes;trait_person_exp_enhanced_ver2_project_complete.osexp;/Users/larisa/Documents;no;mono;no;18;no;white;no;yes;768;4;99;99;/Users/larisa/Documents/subject-77.csv;Melodramatic Milgram;4.0.1;self;0;None;w;None;1.0821870000800118;428.26518800028134;1.0821870000800118;1829.568183999072;q;2;1024;2;48000;-16;experiment;77;odd;40853.973504999885;NA;282289.20456299966;291746.4735829999;289635.01177099894;292176.72912399936;292178.38611499977;42720.51217199987;NA;289733.8932189996;289741.6824759985;40875.814981000076;Новый эксперимент;0;106.28338999216794;100;thoughtful;1024;0;4
undefined;undefined;1;1;#3d3846;psycho;undefined;undefined;undefined;undefined;0;0;101;100;100;100;100;0;NA;100;100;0;2;Sun Nov 26 00:17:07 2023;The main experiment item;yes;trait_person_exp_enhanced_ver2_project_complete.osexp;/Users/larisa/Documents;no;mono;no;18;no;white;no;yes;768;1;100;100;/Users/larisa/Documents/subject-77.csv;Melodramatic Milgram;4.0.1;close4;0;None;w;None;1.078581000911072;314.8394559993758;1.078581000911072;1829.568183999072;q;2;1024;2;48000;-16;experiment;77;odd;40853.973504999885;NA;292179.040691999;294289.5989469998;292178.9733619989;294606.443188999;294608.0963589993;42720.51217199987;NA;292278.2835589987;292284.67841000017;40875.814981000076;Новый эксперимент;0;107.36197099307901;101;cannot code;1024;0;1
undefined;undefined;1;1;#3d3846;psycho;undefined;undefined;undefined;undefined;0;0;102;101;101;101;101;0;NA;101;101;0;3;Sun Nov 26 00:17:07 2023;The main experiment item;yes;trait_person_exp_enhanced_ver2_project_complete.osexp;/Users/larisa/Documents;no;mono;no;18;no;white;no;yes;768;2;101;101;/Users/larisa/Documents/subject-77.csv;Melodramatic Milgram;4.0.1;acquaint1;0;None;w;None;1.0665400004945695;1357.570283998968;1.0665400004945695;1829.568183999072;q;2;1024;2;48000;-16;experiment;77;odd;40853.973504999885;NA;292179.040691999;296717.2182209997;294608.6569849995;298076.8415759994;298078.491504999;42720.51217199987;NA;294705.94246699876;294712.14757499914;40875.814981000076;Новый эксперимент;0;108.42851099357358;102;outgoing;1024;0;1
undefined;undefined;1;1;#3d3846;psycho;undefined;undefined;undefined;undefined;0;0;103;102;102;102;102;0;NA;102;102;0;0;Sun Nov 26 00:17:07 2023;The main experiment item;yes;trait_person_exp_enhanced_ver2_project_complete.osexp;/Users/larisa/Documents;no;mono;no;18;no;white;no;yes;768;3;102;102;/Users/larisa/Documents/subject-77.csv;Melodramatic Milgram;4.0.1;Jimmy;0;None;w;None;1.0284299987833947;296.839071001159;1.0284299987833947;1829.568183999072;q;2;1024;2;48000;-16;experiment;77;odd;40853.973504999885;NA;292179.040691999;300192.6060449987;298079.12484000006;300491.4656330002;300493.44511999877;42720.51217199987;NA;298179.8620769987;298187.4393439994;40875.814981000076;Новый эксперимент;0;109.45694099235698;103;miserable;1024;0;3
undefined;undefined;1;1;#3d3846;psycho;undefined;undefined;undefined;undefined;0;0;104;103;103;103;103;0;NA;103;103;0;0;Sun Nov 26 00:17:07 2023;The main experiment item;yes;trait_person_exp_enhanced_ver2_project_complete.osexp;/Users/larisa/Documents;no;mono;no;18;no;white;no;yes;768;4;103;103;/Users/larisa/Documents/subject-77.csv;Melodramatic Milgram;4.0.1;self;0;None;w;None;1.071701999520883;707.4742330005392;1.071701999520883;1829.568183999072;q;2;1024;2;48000;-16;experiment;77;odd;40853.973504999885;NA;292179.040691999;302603.79605099844;300494.12265599857;303313.3578659999;303315.0248729999;42720.51217199987;NA;300591.42267599964;300599.13079899887;40875.814981000076;Новый эксперимент;0;110.52864299187786;104;chad;1024;0;3
undefined;undefined;1;1;#3d3846;psycho;undefined;undefined;undefined;undefined;0;0;105;104;104;104;104;0;NA;104;104;0;0;Sun Nov 26 00:17:07 2023;The main experiment item;yes;trait_person_exp_enhanced_ver2_project_complete.osexp;/Users/larisa/Documents;no;mono;no;18;no;white;no;yes;768;1;104;104;/Users/larisa/Documents/subject-77.csv;Melodramatic Milgram;4.0.1;self;0;None;w;None;1.049456001026556;440.81426500092493;1.049456001026556;1829.568183999072;q;2;1024;2;48000;-16;experiment;77;odd;40853.973504999885;NA;303315.7310070001;305427.4428969984;303315.65693599987;305870.2628309984;305871.9170859986;42720.51217199987;NA;303414.72923199943;303422.665873999;40875.814981000076;Новый эксперимент;0;111.57809899290442;105;thoughtful;1024;3;0
undefined;undefined;1;1;#3d3846;psycho;undefined;undefined;undefined;undefined;0;0;106;105;105;105;105;0;NA;105;105;0;2;Sun Nov 26 00:17:07 2023;The main experiment item;yes;trait_person_exp_enhanced_ver2_project_complete.osexp;/Users/larisa/Documents;no;mono;no;18;no;white;no;yes;768;2;105;105;/Users/larisa/Documents/subject-77.csv;Melodramatic Milgram;4.0.1;Johnson;0;None;w;None;1.0830360006075352;277.56782699906034;1.0830360006075352;1829.568183999072;q;2;1024;2;48000;-16;experiment;77;odd;40853.973504999885;NA;303315.7310070001;307983.6301699997;305872.4597239998;308263.26742699894;308264.9443499995;42720.51217199987;NA;305970.92894699925;305977.26103499916;40875.814981000076;Новый эксперимент;0;112.66113499351195;106;gregarious;1024;2;1
undefined;undefined;1;1;#3d3846;psycho;undefined;undefined;undefined;undefined;0;0;107;106;106;106;106;0;NA;106;106;0;2;Sun Nov 26 00:17:07 2023;The main experiment item;yes;trait_person_exp_enhanced_ver2_project_complete.osexp;/Users/larisa/Documents;no;mono;no;18;no;white;no;yes;768;3;106;106;/Users/larisa/Documents/subject-77.csv;Melodramatic Milgram;4.0.1;acquaint3;0;None;w;None;1.0605899988440797;278.93354899971746;1.0605899988440797;1829.568183999072;q;2;1024;2;48000;-16;experiment;77;odd;40853.973504999885;NA;303315.7310070001;310378.3634739993;308265.55992700014;310659.30023100006;310660.98344700004;42720.51217199987;NA;308365.1553869986;308373.5454629987;40875.814981000076;Новый эксперимент;0;113.72172499235603;107;miserable;1024;1;1
undefined;undefined;1;1;#3d3846;psycho;undefined;undefined;undefined;undefined;0;0;108;107;107;107;107;0;NA;107;107;0;2;Sun Nov 26 00:17:07 2023;The main experiment item;yes;trait_person_exp_enhanced_ver2_project_complete.osexp;/Users/larisa/Documents;no;mono;no;18;no;white;no;yes;768;4;107;107;/Users/larisa/Documents/subject-77.csv;Melodramatic Milgram;4.0.1;close2;0;None;w;None;1.0636429996811785;355.9935089997598;1.0636429996811785;1829.568183999072;q;2;1024;2;48000;-16;experiment;77;odd;40853.973504999885;NA;303315.7310070001;312770.0206239988;310661.5911559984;313128.0288469989;313129.6984809997;42720.51217199987;NA;310758.41352599853;310764.8178679992;40875.814981000076;Новый эксперимент;0;114.78536799203721;108;cannot code;1024;0;2
undefined;undefined;1;1;#3d3846;psycho;undefined;undefined;undefined;undefined;0;0;109;108;108;108;108;0;NA;108;108;0;1;Sun Nov 26 00:17:07 2023;The main experiment item;yes;trait_person_exp_enhanced_ver2_project_complete.osexp;/Users/larisa/Documents;no;mono;no;18;no;white;no;yes;768;1;108;108;/Users/larisa/Documents/subject-77.csv;Melodramatic Milgram;4.0.1;acquaint4;0;None;w;None;1.0592400012537837;409.9371910014888;1.0592400012537837;1829.568183999072;q;2;1024;2;48000;-16;experiment;77;odd;40853.973504999885;NA;313130.4005759994;315242.10008799855;313130.3246079988;315654.1177129984;315655.7959829988;42720.51217199987;NA;313228.865739;313236.99546899844;40875.814981000076;Новый эксперимент;0;115.84460799329099;109;belittled;1024;0;1
undefined;undefined;1;1;#3d3846;psycho;undefined;undefined;undefined;undefined;0;0;110;109;109;109;109;0;NA;109;109;0;2;Sun Nov 26 00:17:07 2023;The main experiment item;yes;trait_person_exp_enhanced_ver2_project_complete.osexp;/Users/larisa/Documents;no;mono;no;18;no;white;no;yes;768;2;109;109;/Users/larisa/Documents/subject-77.csv;Melodramatic Milgram;4.0.1;self;0;None;w;None;1.0505930004292168;339.1211930011632;1.0505930004292168;1829.568183999072;q;2;1024;2;48000;-16;experiment;77;odd;40853.973504999885;NA;313130.4005759994;317766.7650739986;315656.42031700007;318107.87224199885;318109.5598960001;42720.51217199987;NA;315754.37790399883;315762.1496529991;40875.814981000076;Новый эксперимент;0;116.89520099372021;110;outgoing;1024;2;1
undefined;undefined;1;1;#3d3846;psycho;undefined;undefined;undefined;undefined;0;0;111;110;110;110;110;0;NA;110;110;0;3;Sun Nov 26 00:17:07 2023;The main experiment item;yes;trait_person_exp_enhanced_ver2_project_complete.osexp;/Users/larisa/Documents;no;mono;no;18;no;white;no;yes;768;3;110;110;/Users/larisa/Documents/subject-77.csv;Melodramatic Milgram;4.0.1;close3;0;None;w;None;1.061442999402061;315.44936999853235;1.061442999402061;1829.568183999072;q;2;1024;2;48000;-16;experiment;77;odd;40853.973504999885;NA;313130.4005759994;320222.3957400001;318110.04754699935;320539.8818249996;320541.65813799953;42720.51217199987;NA;318209.1090719987;318217.50720399903;40875.814981000076;Новый эксперимент;0;117.95664399312227;111;miserable;1024;0;1
undefined;undefined;1;1;#3d3846;psycho;undefined;undefined;undefined;undefined;0;0;112;111;111;111;111;0;NA;111;111;0;3;Sun Nov 26 00:17:07 2023;The main experiment item;yes;trait_person_exp_enhanced_ver2_project_complete.osexp;/Users/larisa/Documents;no;mono;no;18;no;white;no;yes;768;4;111;111;/Users/larisa/Documents/subject-77.csv;Melodramatic Milgram;4.0.1;Jimmy;0;None;w;None;1.0637060004519299;355.90749299986055;1.0637060004519299;1829.568183999072;q;2;1024;2;48000;-16;experiment;77;odd;40853.973504999885;NA;313130.4005759994;322654.7683270001;320542.1621629994;323012.7583559988;323014.44380499923;42720.51217199987;NA;320641.334992999;320647.77001899894;40875.814981000076;Новый эксперимент;0;119.0203499935742;112;cannot code;1024;0;1
undefined;undefined;1;1;#3d3846;psycho;undefined;undefined;undefined;undefined;0;0;113;112;112;112;112;0;NA;112;112;0;3;Sun Nov 26 00:17:07 2023;The main experiment item;yes;trait_person_exp_enhanced_ver2_project_complete.osexp;/Users/larisa/Documents;no;mono;no;18;no;white;no;yes;768;1;112;112;/Users/larisa/Documents/subject-77.csv;Melodramatic Milgram;4.0.1;Johnson;0;None;w;None;1.0644180001690984;275.4253300008713;1.0644180001690984;1829.568183999072;q;2;1024;2;48000;-16;experiment;77;odd;40853.973504999885;NA;323015.1472409998;325127.2314969992;323015.07195199886;325404.70029399876;325406.39752199966;42720.51217199987;NA;323115.51099399914;323122.2639560001;40875.814981000076;Новый эксперимент;0;120.0847679937433;113;cannot code;1024;0;6
undefined;undefined;1;1;#3d3846;psycho;undefined;undefined;undefined;undefined;0;0;114;113;113;113;113;0;NA;113;113;0;2;Sun Nov 26 00:17:07 2023;The main experiment item;yes;trait_person_exp_enhanced_ver2_project_complete.osexp;/Users/larisa/Documents;no;mono;no;18;no;white;no;yes;768;2;113;113;/Users/larisa/Documents/subject-77.csv;Melodramatic Milgram;4.0.1;acquaint1;0;None;w;None;1.0670249994727783;350.4315710015362;1.0670249994727783;1829.568183999072;q;2;1024;2;48000;-16;experiment;77;odd;40853.973504999885;NA;323015.1472409998;327519.1170419985;325407.02465399954;327871.6222940002;327873.3236649987;42720.51217199987;NA;325505.9125879998;325514.0789099987;40875.814981000076;Новый эксперимент;0;121.15179299321608;114;belittled;1024;1;2
undefined;undefined;1;1;#3d3846;psycho;undefined;undefined;undefined;undefined;0;0;115;114;114;114;114;0;NA;114;114;0;0;Sun Nov 26 00:17:07 2023;The main experiment item;yes;trait_person_exp_enhanced_ver2_project_complete.osexp;/Users/larisa/Documents;no;mono;no;18;no;white;no;yes;768;3;114;114;/Users/larisa/Documents/subject-77.csv;Melodramatic Milgram;4.0.1;close2;0;None;w;None;1.0762179990997538;313.2155260008876;1.0762179990997538;1829.568183999072;q;2;1024;2;48000;-16;experiment;77;odd;40853.973504999885;NA;323015.1472409998;329986.2418399989;327873.9253359999;330301.5314469994;330303.2648110002;42720.51217199987;NA;327973.03737399855;327981.32791399985;40875.814981000076;Новый эксперимент;0;122.22801099231583;115;miserable;1024;0;1
undefined;undefined;1;1;#3d3846;psycho;undefined;undefined;undefined;undefined;0;0;116;115;115;115;115;0;NA;115;115;0;0;Sun Nov 26 00:17:07 2023;The main experiment item;yes;trait_person_exp_enhanced_ver2_project_complete.osexp;/Users/larisa/Documents;no;mono;no;18;no;white;no;yes;768;4;115;115;/Users/larisa/Documents/subject-77.csv;Melodramatic Milgram;4.0.1;self;0;None;w;None;1.0755549992318265;567.2897599997814;1.0755549992318265;1829.568183999072;q;2;1024;2;48000;-16;experiment;77;odd;40853.973504999885;NA;323015.1472409998;332412.15583099984;330303.872774999;332981.64453199937;332983.35951899935;42720.51217199987;NA;330400.9609549994;330406.9772859984;40875.814981000076;Новый эксперимент;0;123.30356599154766;116;outgoing;1024;0;0
undefined;undefined;1;1;#3d3846;psycho;undefined;undefined;undefined;undefined;0;0;117;116;116;116;116;0;NA;116;116;0;0;Sun Nov 26 00:17:07 2023;The main experiment item;yes;trait_person_exp_enhanced_ver2_project_complete.osexp;/Users/larisa/Documents;no;mono;no;18;no;white;no;yes;768;1;116;116;/Users/larisa/Documents/subject-77.csv;Melodramatic Milgram;4.0.1;self;0;None;w;None;1.0797230006428435;310.98147099878406;1.0797230006428435;1829.568183999072;q;2;1024;2;48000;-16;experiment;77;odd;40853.973504999885;NA;332983.9951679987;335094.3730489998;332983.9295289985;335407.4146499988;335409.1554759998;42720.51217199987;NA;333082.05213399924;333089.6822509985;40875.814981000076;Новый эксперимент;0;124.3832889921905;117;outgoing;1024;0;4
undefined;undefined;1;1;#3d3846;psycho;undefined;undefined;undefined;undefined;0;0;118;117;117;117;117;0;NA;117;117;0;3;Sun Nov 26 00:17:07 2023;The main experiment item;yes;trait_person_exp_enhanced_ver2_project_complete.osexp;/Users/larisa/Documents;no;mono;no;18;no;white;no;yes;768;2;117;117;/Users/larisa/Documents/subject-77.csv;Melodramatic Milgram;4.0.1;close1;0;None;w;None;1.0190379998530261;338.1812679999857;1.0190379998530261;1829.568183999072;q;2;1024;2;48000;-16;experiment;77;odd;40853.973504999885;NA;332983.9951679987;337517.0598159984;335409.8089179988;337857.33473599976;337859.02058600006;42720.51217199987;NA;335505.9109979993;335511.93445999885;40875.814981000076;Новый эксперимент;0;125.40232699204353;118;winner;1024;2;5
undefined;undefined;1;1;#3d3846;psycho;undefined;undefined;undefined;undefined;0;0;119;118;118;118;118;0;NA;118;118;0;3;Sun Nov 26 00:17:07 2023;The main experiment item;yes;trait_person_exp_enhanced_ver2_project_complete.osexp;/Users/larisa/Documents;no;mono;no;18;no;white;no;yes;768;3;118;118;/Users/larisa/Documents/subject-77.csv;Melodramatic Milgram;4.0.1;acquaint3;0;None;w;None;1.0631440000142902;788.7242640008335;1.0631440000142902;1829.568183999072;q;2;1024;2;48000;-16;experiment;77;odd;40853.973504999885;NA;332983.9951679987;339971.44850899896;337859.6267239991;340762.3145500001;340764.03535200004;42720.51217199987;NA;337958.1341899993;337966.5917629991;40875.814981000076;Новый эксперимент;0;126.46547099205782;119;belittled;1024;1;1
undefined;undefined;1;1;#3d3846;psycho;undefined;undefined;undefined;undefined;0;0;120;119;119;119;119;0;NA;119;119;0;3;Sun Nov 26 00:17:07 2023;The main experiment item;yes;trait_person_exp_enhanced_ver2_project_complete.osexp;/Users/larisa/Documents;no;mono;no;18;no;white;no;yes;768;4;119;119;/Users/larisa/Documents/subject-77.csv;Melodramatic Milgram;4.0.1;Catlin;0;None;w;None;1.0639630000223406;355.3736769990646;1.0639630000223406;1829.568183999072;q;2;1024;2;48000;-16;experiment;77;odd;40853.973504999885;NA;332983.9951679987;342874.7501329999;340764.5460499989;343232.2047369998;343233.95571199944;42720.51217199987;NA;340863.67797299864;340870.036676999;40875.814981000076;Новый эксперимент;0;127.52943399208016;120;miserable;1024;0;0